# Left column = Time after Trigger in seconds & Right column = # Counts / Exposure = Flux per cm² s
700.000000 10.692146
701.000000 6.458521
702.000000 8.575208
703.000000 7.559632
704.000000 10.762029
705.000000 6.464447
706.000000 12.899522
707.000000 8.597241
708.000000 7.562001
709.000000 8.555801
710.000000 5.344741
711.000000 6.462899
712.000000 1.076105
713.000000 11.728259
714.000000 9.671464
715.000000 4.275543
716.000000 8.592231
717.000000 6.429200
718.000000 12.847087
719.000000 10.668976
720.000000 11.770156
721.000000 4.294707
722.000000 8.573397
723.000000 7.499032
724.000000 10.805459
725.000000 15.043977
726.000000 11.787713
727.000000 9.650559
728.000000 7.516844
729.000000 8.596129
730.000000 9.639471
731.000000 5.364870
732.000000 8.598991
733.000000 9.637253
734.000000 6.427671
735.000000 9.650206
736.000000 6.470484
737.000000 4.276213
738.000000 3.208642
739.000000 8.634435
740.000000 10.696703
741.000000 12.836208
742.000000 6.439512
743.000000 7.488623
744.000000 11.776983
745.000000 5.352378
746.000000 4.317750
747.000000 6.388474
748.000000 9.658338
749.000000 10.737466
750.000000 7.542187
751.000000 7.513657
752.000000 7.541509
753.000000 14.991054
754.000000 12.870890
755.000000 6.417750
756.000000 9.714163
757.000000 9.626580
758.000000 8.605476
759.000000 3.200981
760.000000 10.747079
761.000000 6.465232
762.000000 11.815678
763.000000 11.820004
764.000000 5.350461
765.000000 7.463122
766.000000 7.514659
767.000000 6.461064
768.000000 8.597212
769.000000 4.274612
770.000000 11.763579
771.000000 9.722757
772.000000 13.884162
773.000000 8.555202
774.000000 4.305022
775.000000 8.576195
776.000000 10.721259
777.000000 12.970644
778.000000 6.419647
779.000000 6.441025
780.000000 8.604489
781.000000 2.139827
782.000000 7.472303
783.000000 6.425673
784.000000 7.565850
785.000000 4.264682
786.000000 7.539822
787.000000 4.275499
788.000000 7.475557
789.000000 12.833006
790.000000 6.400778
791.000000 4.297834
792.000000 3.222144
793.000000 9.609735
794.000000 8.560113
795.000000 6.460705
796.000000 4.291559
797.000000 7.526775
798.000000 5.354385
799.000000 6.465477
800.000000 6.404244
801.000000 2.144688
802.000000 3.232005
803.000000 3.238788
804.000000 9.689900
805.000000 2.138847
806.000000 7.500754
807.000000 7.505945
808.000000 9.678665
809.000000 5.362678
810.000000 6.444070
811.000000 11.799016
812.000000 7.476961
813.000000 6.409222
814.000000 9.599071
815.000000 4.295537
816.000000 9.637271
817.000000 5.376592
818.000000 5.377928
819.000000 9.761761
820.000000 4.316421
821.000000 5.356221
822.000000 16.138230
823.000000 3.216975
824.000000 7.492497
825.000000 7.541966
826.000000 5.363952
827.000000 4.291897
828.000000 3.219034
829.000000 6.420995
830.000000 6.464074
831.000000 10.755141
832.000000 5.373771
833.000000 7.464476
834.000000 11.805007
835.000000 5.345564
836.000000 7.505730
837.000000 6.414875
838.000000 9.686665
839.000000 3.245584
840.000000 8.561821
841.000000 9.612177
842.000000 8.621625
843.000000 7.461931
844.000000 6.440818
845.000000 3.207431
846.000000 8.555762
847.000000 6.420610
848.000000 8.519520
849.000000 6.395788
850.000000 5.384700
851.000000 5.351060
852.000000 9.689290
853.000000 10.651618
854.000000 11.891793
855.000000 11.822030
856.000000 7.483835
857.000000 8.541738
858.000000 5.342791
859.000000 11.794168
860.000000 5.352347
861.000000 8.615478
862.000000 9.665344
863.000000 10.757539
864.000000 7.491208
865.000000 4.292784
866.000000 10.797617
867.000000 9.606176
868.000000 6.434870
869.000000 6.445264
870.000000 7.507267
871.000000 9.683221
872.000000 15.039346
873.000000 5.372978
874.000000 9.662001
875.000000 8.569643
876.000000 9.657027
877.000000 12.909975
878.000000 7.496905
879.000000 4.277427
880.000000 8.610395
881.000000 12.873571
882.000000 6.492097
883.000000 10.696329
884.000000 6.438704
885.000000 9.644300
886.000000 10.703768
887.000000 8.565138
888.000000 5.369209
889.000000 9.683963
890.000000 3.231591
891.000000 3.231072
892.000000 7.459587
893.000000 5.357675
894.000000 12.783967
895.000000 9.652215
896.000000 8.658924
897.000000 8.651634
898.000000 11.867746
899.000000 9.655525
900.000000 6.439339
901.000000 8.546432
902.000000 5.357885
903.000000 17.080173
904.000000 4.269804
905.000000 6.432372
906.000000 10.771185
907.000000 12.974116
908.000000 4.263933
909.000000 6.409632
910.000000 5.381368
911.000000 5.398748
912.000000 3.218389
913.000000 2.138336
914.000000 5.371063
915.000000 15.054460
916.000000 2.137935
917.000000 9.650391
918.000000 4.280757
919.000000 9.670372
920.000000 6.441459
921.000000 12.865933
922.000000 19.254035
923.000000 9.690104
924.000000 9.645976
925.000000 4.286923
926.000000 6.469049
927.000000 7.534355
928.000000 8.588860
929.000000 10.665131
930.000000 3.219062
931.000000 7.525944
932.000000 6.453770
933.000000 10.788842
934.000000 8.613392
935.000000 9.652465
936.000000 4.313508
937.000000 2.143075
938.000000 10.751186
939.000000 9.632434
940.000000 12.884693
941.000000 6.448493
942.000000 9.608076
943.000000 8.606765
944.000000 7.485702
945.000000 9.638305
946.000000 8.525064
947.000000 7.507396
948.000000 6.396379
949.000000 9.694251
950.000000 10.699462
951.000000 14.034587
952.000000 7.465388
953.000000 6.442878
954.000000 9.609099
955.000000 4.290400
956.000000 5.346966
957.000000 9.646735
958.000000 9.624925
959.000000 5.349542
960.000000 6.421401
961.000000 10.698981
962.000000 6.446864
963.000000 6.447991
964.000000 8.646836
965.000000 8.609921
966.000000 8.597027
967.000000 8.574108
968.000000 7.484750
969.000000 16.133510
970.000000 7.548081
971.000000 9.634776
972.000000 6.385809
973.000000 4.263944
974.000000 7.529925
975.000000 9.683991
976.000000 7.509110
977.000000 7.517196
978.000000 5.379155
979.000000 4.277961
980.000000 11.845410
981.000000 9.573320
982.000000 6.404501
983.000000 5.334825
984.000000 5.364117
985.000000 6.435952
986.000000 8.596455
987.000000 3.213218
988.000000 10.670966
989.000000 14.064601
990.000000 9.605464
991.000000 8.576069
992.000000 12.791397
993.000000 4.268187
994.000000 8.580958
995.000000 8.593700
996.000000 9.694442
997.000000 9.618149
998.000000 8.564341
999.000000 8.577975
1000.000000 6.432494
1001.000000 10.755104
1002.000000 5.347825
1003.000000 12.825120
1004.000000 12.837230
1005.000000 7.540392
1006.000000 10.769330
1007.000000 19.239623
1008.000000 9.613573
1009.000000 17.121937
1010.000000 17.071560
1011.000000 11.806768
1012.000000 15.067687
1013.000000 16.072347
1014.000000 16.076057
1015.000000 18.199447
1016.000000 14.996106
1017.000000 10.633144
1018.000000 12.874234
1019.000000 7.494009
1020.000000 10.700567
1021.000000 11.809777
1022.000000 15.002446
1023.000000 6.445192
1024.000000 8.593645
1025.000000 10.741047
1026.000000 8.583617
1027.000000 11.755330
1028.000000 8.540774
1029.000000 3.217241
1030.000000 7.511976
1031.000000 13.904475
1032.000000 14.966735
1033.000000 20.420548
1034.000000 32.147573
1035.000000 32.131916
1036.000000 16.084405
1037.000000 18.264082
1038.000000 8.607413
1039.000000 11.728012
1040.000000 16.054581
1041.000000 14.975207
1042.000000 15.085745
1043.000000 8.520282
1044.000000 6.412135
1045.000000 7.451961
1046.000000 12.858361
1047.000000 11.826961
1048.000000 9.666952
1049.000000 5.353122
1050.000000 9.644951
1051.000000 9.640131
1052.000000 10.763453
1053.000000 16.049236
1054.000000 3.202089
1055.000000 6.441166
1056.000000 16.025559
1057.000000 18.221358
1058.000000 5.348511
1059.000000 7.451919
1060.000000 9.606135
1061.000000 9.643118
1062.000000 7.494768
1063.000000 9.658420
1064.000000 9.617292
1065.000000 4.296154
1066.000000 10.709904
1067.000000 9.642254
1068.000000 11.796121
1069.000000 3.204368
1070.000000 13.932946
1071.000000 11.735423
1072.000000 8.550571
1073.000000 10.767607
1074.000000 5.319684
1075.000000 8.531749
1076.000000 4.304900
1077.000000 5.336719
1078.000000 7.470301
1079.000000 8.528528
1080.000000 11.744473
1081.000000 9.648291
1082.000000 7.540199
1083.000000 7.494394
1084.000000 7.516194
1085.000000 11.812868
1086.000000 8.560970
1087.000000 9.649416
1088.000000 5.340159
1089.000000 8.565507
1090.000000 7.532179
1091.000000 3.213654
1092.000000 8.580492
1093.000000 3.242315
1094.000000 12.906127
1095.000000 4.284420
1096.000000 5.363973
1097.000000 7.496411
1098.000000 12.744776
1099.000000 9.707501
1100.000000 10.700498
1101.000000 10.703727
1102.000000 9.638191
1103.000000 4.291222
1104.000000 7.473793
1105.000000 4.260378
1106.000000 5.360629
1107.000000 5.324884
1108.000000 7.466135
1109.000000 13.864331
1110.000000 10.681625
1111.000000 3.209940
1112.000000 8.530083
1113.000000 6.457900
1114.000000 4.304548
1115.000000 8.552215
1116.000000 5.330053
1117.000000 6.412470
1118.000000 7.524173
1119.000000 6.419378
1120.000000 8.513617
1121.000000 8.600352
1122.000000 6.413744
1123.000000 13.890214
1124.000000 5.372278
1125.000000 11.717299
1126.000000 10.701693
1127.000000 7.526845
1128.000000 15.004718
1129.000000 6.407040
1130.000000 8.537767
1131.000000 12.818254
1132.000000 8.585797
1133.000000 7.560108
1134.000000 15.042403
1135.000000 4.265371
1136.000000 4.268818
1137.000000 9.600724
1138.000000 4.272779
1139.000000 2.116671
1140.000000 2.135813
1141.000000 6.428711
1142.000000 9.624633
1143.000000 11.864896
1144.000000 8.547494
1145.000000 6.456618
1146.000000 2.126570
1147.000000 10.693844
1148.000000 9.655880
1149.000000 6.438244
1150.000000 11.816214
1151.000000 8.562542
1152.000000 7.456324
1153.000000 16.053984
1154.000000 8.577076
1155.000000 10.717719
1156.000000 10.679355
1157.000000 6.400012
1158.000000 12.817606
1159.000000 9.597374
1160.000000 4.272920
1161.000000 7.520908
1162.000000 7.478749
1163.000000 10.696148
1164.000000 17.053818
1165.000000 10.694731
1166.000000 2.152541
1167.000000 11.774389
1168.000000 12.878669
1169.000000 9.587348
1170.000000 10.707927
1171.000000 12.776072
1172.000000 6.458211
1173.000000 8.578433
1174.000000 9.663179
1175.000000 6.436077
1176.000000 4.285587
1177.000000 6.430297
1178.000000 9.597785
1179.000000 6.437086
1180.000000 10.707279
1181.000000 8.629110
1182.000000 6.402810
1183.000000 6.452538
1184.000000 6.418248
1185.000000 11.671784
1186.000000 6.429719
1187.000000 5.347352
1188.000000 9.624497
1189.000000 7.491848
1190.000000 8.572176
1191.000000 11.826723
1192.000000 8.551636
1193.000000 8.533816
1194.000000 6.469418
1195.000000 8.527714
1196.000000 9.601098
1197.000000 8.584212
1198.000000 10.654387
1199.000000 9.630810
1200.000000 5.338985
1201.000000 6.392145
1202.000000 6.428811
1203.000000 9.641901
1204.000000 8.551388
1205.000000 8.575698
1206.000000 8.533761
1207.000000 9.699629
1208.000000 8.636680
1209.000000 4.263331
1210.000000 5.353576
1211.000000 8.612442
1212.000000 7.483426
1213.000000 9.573584
1214.000000 11.737633
1215.000000 9.714370
1216.000000 11.711930
1217.000000 7.465799
1218.000000 13.932212
1219.000000 8.555756
1220.000000 6.425853
1221.000000 9.653662
1222.000000 4.300387
1223.000000 9.673029
1224.000000 4.264046
1225.000000 11.787522
1226.000000 6.453055
1227.000000 4.272608
1228.000000 8.560819
1229.000000 17.061423
1230.000000 12.890547
1231.000000 9.656552
1232.000000 5.362793
1233.000000 8.602194
1234.000000 5.381543
1235.000000 8.578613
1236.000000 10.799287
1237.000000 8.531409
1238.000000 13.946449
1239.000000 5.353860
1240.000000 5.351200
1241.000000 7.519562
1242.000000 6.456361
1243.000000 10.663937
1244.000000 5.351486
1245.000000 9.677806
1246.000000 4.278635
1247.000000 12.857531
1248.000000 11.890280
1249.000000 6.440736
1250.000000 7.552121
1251.000000 7.519870
1252.000000 9.672721
1253.000000 5.353524
1254.000000 4.309609
1255.000000 9.717526
1256.000000 4.310004
1257.000000 8.585683
1258.000000 11.836671
1259.000000 11.851312
1260.000000 10.726528
1261.000000 7.511774
1262.000000 2.144333
1263.000000 9.652481
1264.000000 5.374183
1265.000000 6.457708
1266.000000 10.710567
1267.000000 10.800457
1268.000000 10.760890
1269.000000 7.523445
1270.000000 6.472931
1271.000000 7.521252
1272.000000 7.560755
1273.000000 12.929885
1274.000000 9.700398
1275.000000 6.417258
1276.000000 7.479246
1277.000000 7.418773
1278.000000 7.532864
1279.000000 4.312053
1280.000000 3.225630
1281.000000 6.426215
1282.000000 3.228229
1283.000000 8.566548
1284.000000 7.541013
1285.000000 9.636083
1286.000000 6.453163
1287.000000 7.581443
1288.000000 8.588484
1289.000000 9.701491
1290.000000 7.489476
1291.000000 12.961251
1292.000000 7.518091
1293.000000 6.458979
1294.000000 12.845972
1295.000000 8.616318
1296.000000 7.513954
1297.000000 5.375846
1298.000000 3.211959
1299.000000 10.682325
