# Left column = Time after Trigger in seconds & Right column = # Counts / Exposure = Flux per cm² s
700.000000 11.137639
701.000000 18.067151
702.000000 12.343431
703.000000 17.868098
704.000000 8.932687
705.000000 16.661153
706.000000 7.801898
707.000000 22.269032
708.000000 15.524364
709.000000 12.128387
710.000000 22.346744
711.000000 16.936804
712.000000 11.177702
713.000000 25.812082
714.000000 15.741111
715.000000 15.650655
716.000000 19.021505
717.000000 11.170100
718.000000 18.957349
719.000000 21.393528
720.000000 15.598397
721.000000 12.284246
722.000000 10.054493
723.000000 7.833794
724.000000 8.881976
725.000000 19.929664
726.000000 12.326095
727.000000 8.944822
728.000000 14.502902
729.000000 19.136259
730.000000 16.859729
731.000000 15.742732
732.000000 7.800673
733.000000 15.556350
734.000000 10.018110
735.000000 22.315632
736.000000 17.994358
737.000000 17.840855
738.000000 15.593865
739.000000 4.441901
740.000000 15.628904
741.000000 16.722006
742.000000 11.182417
743.000000 15.663726
744.000000 12.296761
745.000000 13.339744
746.000000 14.554764
747.000000 13.412045
748.000000 12.282332
749.000000 11.162266
750.000000 7.856115
751.000000 13.431062
752.000000 8.960195
753.000000 6.737996
754.000000 17.889898
755.000000 12.357127
756.000000 10.108195
757.000000 13.449779
758.000000 17.902775
759.000000 14.622743
760.000000 20.148974
761.000000 16.786417
762.000000 14.443950
763.000000 12.234098
764.000000 9.994198
765.000000 24.571698
766.000000 11.166955
767.000000 19.056964
768.000000 16.866975
769.000000 11.297985
770.000000 12.348589
771.000000 14.569494
772.000000 10.124890
773.000000 10.106859
774.000000 10.065384
775.000000 11.099954
776.000000 13.540610
777.000000 16.887427
778.000000 11.244561
779.000000 17.894734
780.000000 5.589487
781.000000 10.103208
782.000000 12.218448
783.000000 10.083070
784.000000 10.126612
785.000000 18.006367
786.000000 7.848398
787.000000 10.079742
788.000000 13.445384
789.000000 19.119255
790.000000 13.466708
791.000000 20.119024
792.000000 15.749753
793.000000 14.508486
794.000000 21.171223
795.000000 14.709507
796.000000 8.873189
797.000000 15.786560
798.000000 14.488625
799.000000 13.467869
800.000000 16.709922
801.000000 15.720126
802.000000 13.557388
803.000000 14.692545
804.000000 16.745689
805.000000 12.475087
806.000000 15.751901
807.000000 12.329521
808.000000 19.192257
809.000000 8.926533
810.000000 14.574909
811.000000 12.450004
812.000000 14.656087
813.000000 10.095666
814.000000 12.291762
815.000000 15.681933
816.000000 10.158724
817.000000 17.947806
818.000000 13.504024
819.000000 23.473249
820.000000 19.970162
821.000000 14.573967
822.000000 11.230393
823.000000 11.186190
824.000000 12.326982
825.000000 13.472202
826.000000 17.993284
827.000000 15.626716
828.000000 6.681129
829.000000 12.299092
830.000000 13.363189
831.000000 12.353854
832.000000 19.133863
833.000000 15.736730
834.000000 12.337278
835.000000 14.642764
836.000000 13.556272
837.000000 22.469828
838.000000 12.361436
839.000000 16.975915
840.000000 10.115095
841.000000 21.303879
842.000000 11.227494
843.000000 16.945073
844.000000 17.979764
845.000000 15.744526
846.000000 20.269059
847.000000 11.177855
848.000000 12.381399
849.000000 22.662779
850.000000 15.747991
851.000000 11.303617
852.000000 12.359947
853.000000 18.168668
854.000000 12.266756
855.000000 10.159917
856.000000 13.495360
857.000000 19.196359
858.000000 25.870670
859.000000 13.511830
860.000000 14.623613
861.000000 10.120258
862.000000 11.225324
863.000000 13.596529
864.000000 8.990422
865.000000 7.884779
866.000000 17.996016
867.000000 14.548658
868.000000 15.685277
869.000000 16.851699
870.000000 15.718897
871.000000 17.966330
872.000000 18.020813
873.000000 14.795492
874.000000 12.340904
875.000000 17.995967
876.000000 19.309271
877.000000 15.836538
878.000000 10.127483
879.000000 21.322801
880.000000 12.419626
881.000000 17.939709
882.000000 18.035520
883.000000 15.722832
884.000000 14.748197
885.000000 21.625194
886.000000 12.339504
887.000000 16.999515
888.000000 12.377306
889.000000 10.136143
890.000000 15.826044
891.000000 23.585841
892.000000 14.604582
893.000000 14.614132
894.000000 20.269236
895.000000 15.848597
896.000000 10.103084
897.000000 18.180434
898.000000 11.276719
899.000000 21.399750
900.000000 14.633054
901.000000 19.204690
902.000000 14.794753
903.000000 10.189861
904.000000 25.057818
905.000000 14.656240
906.000000 21.376931
907.000000 7.908101
908.000000 19.122385
909.000000 15.660677
910.000000 15.795115
911.000000 20.215845
912.000000 14.614614
913.000000 7.904785
914.000000 15.803405
915.000000 16.902898
916.000000 13.570097
917.000000 15.673668
918.000000 15.896982
919.000000 14.663236
920.000000 14.669535
921.000000 11.234334
922.000000 16.936924
923.000000 19.152698
924.000000 19.180085
925.000000 13.535571
926.000000 15.929788
927.000000 19.280092
928.000000 10.181881
929.000000 16.964805
930.000000 12.448163
931.000000 21.480389
932.000000 13.535475
933.000000 25.892640
934.000000 10.182079
935.000000 13.581432
936.000000 12.482253
937.000000 21.631312
938.000000 17.890896
939.000000 12.402554
940.000000 20.308832
941.000000 12.449990
942.000000 11.266460
943.000000 11.305217
944.000000 13.636239
945.000000 7.926799
946.000000 9.101735
947.000000 18.169523
948.000000 16.990994
949.000000 6.794583
950.000000 20.331431
951.000000 20.296806
952.000000 11.318955
953.000000 17.047419
954.000000 18.000263
955.000000 15.838209
956.000000 9.046995
957.000000 7.889584
958.000000 14.795300
959.000000 11.333970
960.000000 10.272986
961.000000 12.432222
962.000000 12.482462
963.000000 21.482983
964.000000 16.939216
965.000000 8.992237
966.000000 13.688102
967.000000 23.809557
968.000000 19.334819
969.000000 16.926755
970.000000 11.319428
971.000000 12.410130
972.000000 14.854867
973.000000 22.652050
974.000000 13.525083
975.000000 10.219981
976.000000 14.687820
977.000000 12.448370
978.000000 19.237063
979.000000 15.832047
980.000000 21.552618
981.000000 23.674301
982.000000 13.574062
983.000000 10.230555
984.000000 7.927489
985.000000 19.198613
986.000000 19.213603
987.000000 14.831164
988.000000 16.908567
989.000000 13.509137
990.000000 9.055539
991.000000 11.311789
992.000000 15.757292
993.000000 13.692005
994.000000 18.187279
995.000000 22.941261
996.000000 11.422815
997.000000 18.090504
998.000000 13.684826
999.000000 9.051913
1000.000000 68.443526
1001.000000 36.430838
1002.000000 12.469071
1003.000000 20.422127
1004.000000 5.672612
1005.000000 18.193460
1006.000000 7.952787
1007.000000 17.100330
1008.000000 15.875388
1009.000000 16.984929
1010.000000 21.694179
1011.000000 15.944763
1012.000000 14.753410
1013.000000 26.036893
1014.000000 14.765383
1015.000000 14.662160
1016.000000 24.924977
1017.000000 11.450397
1018.000000 14.887070
1019.000000 15.887889
1020.000000 12.428559
1021.000000 18.023438
1022.000000 18.243997
1023.000000 17.059692
1024.000000 19.175676
1025.000000 18.291261
1026.000000 13.574153
1027.000000 14.706656
1028.000000 20.385034
1029.000000 14.757785
1030.000000 19.215609
1031.000000 13.686249
1032.000000 13.661825
1033.000000 13.605607
1034.000000 12.546327
1035.000000 10.310297
1036.000000 15.944125
1037.000000 20.415099
1038.000000 22.769394
1039.000000 21.611451
1040.000000 13.499934
1041.000000 13.605491
1042.000000 4.535967
1043.000000 9.126625
1044.000000 17.037035
1045.000000 19.259657
1046.000000 9.110652
1047.000000 17.031771
1048.000000 13.629795
1049.000000 26.138598
1050.000000 14.744802
1051.000000 19.236156
1052.000000 13.688886
1053.000000 18.163231
1054.000000 14.770718
1055.000000 21.925628
1056.000000 14.800634
1057.000000 16.092375
1058.000000 17.075478
1059.000000 10.221556
1060.000000 9.032727
1061.000000 13.656640
1062.000000 15.909323
1063.000000 13.664669
1064.000000 21.544391
1065.000000 22.772428
1066.000000 10.250692
1067.000000 14.709680
1068.000000 18.194972
1069.000000 11.443218
1070.000000 15.899953
1071.000000 17.030603
1072.000000 11.395836
1073.000000 16.956531
1074.000000 18.359418
1075.000000 13.687441
1076.000000 22.749156
1077.000000 11.381641
1078.000000 14.913749
1079.000000 18.140501
1080.000000 18.240994
1081.000000 11.404889
1082.000000 16.999197
1083.000000 11.458644
1084.000000 18.266010
1085.000000 15.922113
1086.000000 24.056669
1087.000000 19.362198
1088.000000 19.232716
1089.000000 10.253902
1090.000000 12.581319
1091.000000 20.622508
1092.000000 15.997868
1093.000000 10.247010
1094.000000 18.297853
1095.000000 15.773069
1096.000000 20.546571
1097.000000 14.845593
1098.000000 14.784521
1099.000000 23.750451
1100.000000 10.285117
1101.000000 19.267061
1102.000000 26.293586
1103.000000 13.668878
1104.000000 14.744908
1105.000000 7.966780
1106.000000 17.190659
1107.000000 5.690375
1108.000000 26.349756
1109.000000 19.523207
1110.000000 16.037761
1111.000000 14.764888
1112.000000 11.507345
1113.000000 19.345133
1114.000000 15.952162
1115.000000 17.287574
1116.000000 17.200151
1117.000000 13.673046
1118.000000 12.624247
1119.000000 19.307882
1120.000000 12.633620
1121.000000 13.689206
1122.000000 22.956862
1123.000000 18.187973
1124.000000 15.905942
1125.000000 14.817800
1126.000000 23.921223
1127.000000 7.999826
1128.000000 12.527836
1129.000000 9.180424
1130.000000 21.727614
1131.000000 17.273644
1132.000000 10.233092
1133.000000 19.498657
1134.000000 22.784159
1135.000000 21.577145
1136.000000 14.794035
1137.000000 11.474515
1138.000000 10.317635
1139.000000 20.607051
1140.000000 9.206220
1141.000000 16.207532
1142.000000 13.608309
1143.000000 22.861619
1144.000000 18.251025
1145.000000 20.474513
1146.000000 17.134539
1147.000000 18.306542
1148.000000 14.840382
1149.000000 8.020338
1150.000000 12.704658
1151.000000 14.904407
1152.000000 18.231258
1153.000000 14.802538
1154.000000 12.512042
1155.000000 16.103187
1156.000000 22.696380
1157.000000 10.341175
1158.000000 14.876399
1159.000000 16.048880
1160.000000 13.721105
1161.000000 17.080085
1162.000000 16.121371
1163.000000 18.462056
1164.000000 20.533931
1165.000000 21.646978
1166.000000 23.979151
1167.000000 11.373256
1168.000000 25.117203
1169.000000 14.907350
1170.000000 17.156407
1171.000000 20.648246
1172.000000 17.106764
1173.000000 11.464958
1174.000000 11.398793
1175.000000 18.315584
1176.000000 12.552519
1177.000000 14.784040
1178.000000 9.237782
1179.000000 18.274620
1180.000000 11.506123
1181.000000 12.648261
1182.000000 13.724737
1183.000000 18.326001
1184.000000 7.962891
1185.000000 13.701102
1186.000000 11.417540
1187.000000 9.171687
1188.000000 22.917970
1189.000000 19.455475
1190.000000 13.708108
1191.000000 25.264460
1192.000000 15.054179
1193.000000 13.771427
1194.000000 17.248394
1195.000000 15.950096
1196.000000 11.466590
1197.000000 26.525075
1198.000000 8.036482
1199.000000 26.456499
1200.000000 12.612714
1201.000000 20.637267
1202.000000 17.101923
1203.000000 12.610070
1204.000000 10.374215
1205.000000 11.474515
1206.000000 13.745103
1207.000000 14.709870
1208.000000 12.518517
1209.000000 18.329341
1210.000000 16.096615
1211.000000 10.321132
1212.000000 11.469248
1213.000000 20.564151
1214.000000 14.821648
1215.000000 23.145348
1216.000000 18.327072
1217.000000 12.619776
1218.000000 20.638582
1219.000000 16.052359
1220.000000 13.771997
1221.000000 12.635414
1222.000000 13.793421
1223.000000 23.034318
1224.000000 20.437168
1225.000000 14.842182
1226.000000 19.443102
1227.000000 11.351448
1228.000000 17.234189
1229.000000 17.257775
1230.000000 16.012765
1231.000000 16.165766
1232.000000 11.528105
1233.000000 11.467494
1234.000000 15.992165
1235.000000 16.039242
1236.000000 15.010129
1237.000000 17.397745
1238.000000 24.188400
1239.000000 12.625906
1240.000000 18.315073
1241.000000 21.895760
1242.000000 12.469830
1243.000000 12.594822
1244.000000 14.971071
1245.000000 17.277846
1246.000000 14.999141
1247.000000 18.265001
1248.000000 12.659556
1249.000000 16.197454
1250.000000 12.602692
1251.000000 16.181219
1252.000000 12.762456
1253.000000 13.838675
1254.000000 19.476864
1255.000000 13.746522
1256.000000 16.017150
1257.000000 28.691163
1258.000000 14.803203
1259.000000 22.022779
1260.000000 14.938761
1261.000000 12.647256
1262.000000 10.391458
1263.000000 9.180014
1264.000000 13.827490
1265.000000 11.496973
1266.000000 25.163495
1267.000000 18.542759
1268.000000 27.653806
1269.000000 15.042992
1270.000000 11.596253
1271.000000 13.761835
1272.000000 21.850035
1273.000000 14.870726
1274.000000 16.167716
1275.000000 6.848051
1276.000000 14.837270
1277.000000 14.925970
1278.000000 21.990318
1279.000000 17.180683
1280.000000 19.529892
1281.000000 18.359737
1282.000000 17.317258
1283.000000 13.731722
1284.000000 16.224596
1285.000000 6.919721
1286.000000 18.477695
1287.000000 16.094833
1288.000000 20.629976
1289.000000 17.258180
1290.000000 17.459472
1291.000000 14.982840
1292.000000 19.560926
1293.000000 16.130384
1294.000000 17.438608
1295.000000 21.892165
1296.000000 16.076292
1297.000000 16.052688
1298.000000 15.948967
1299.000000 27.489338
