# Left column = Time after Trigger in seconds & Right column = # Counts / Exposure = Flux per cm² s
700.000000 15.624200
701.000000 16.892877
702.000000 14.418205
703.000000 10.869257
704.000000 19.291346
705.000000 9.647363
706.000000 15.717814
707.000000 18.119571
708.000000 12.061676
709.000000 13.253725
710.000000 13.368273
711.000000 22.964361
712.000000 19.276622
713.000000 15.715014
714.000000 12.075231
715.000000 25.402149
716.000000 9.627641
717.000000 16.945812
718.000000 15.658368
719.000000 16.822688
720.000000 19.276637
721.000000 23.137319
722.000000 13.198191
723.000000 7.331454
724.000000 20.530870
725.000000 8.384477
726.000000 16.846178
727.000000 13.309260
728.000000 13.342848
729.000000 18.271449
730.000000 18.257226
731.000000 13.192419
732.000000 19.084756
733.000000 18.093698
734.000000 14.411615
735.000000 21.946078
736.000000 16.765724
737.000000 18.446679
738.000000 13.260272
739.000000 16.888148
740.000000 25.166205
741.000000 14.368658
742.000000 12.040447
743.000000 20.589051
744.000000 15.767092
745.000000 14.457750
746.000000 22.906818
747.000000 21.968784
748.000000 10.861856
749.000000 7.294833
750.000000 19.304287
751.000000 23.146385
752.000000 23.901032
753.000000 18.145366
754.000000 17.990658
755.000000 18.075385
756.000000 13.267020
757.000000 17.991062
758.000000 18.247567
759.000000 16.870425
760.000000 24.198256
761.000000 14.543297
762.000000 18.027472
763.000000 9.720133
764.000000 20.414319
765.000000 13.228221
766.000000 15.543478
767.000000 17.103379
768.000000 16.958649
769.000000 21.918135
770.000000 12.067035
771.000000 20.730537
772.000000 22.797719
773.000000 13.339610
774.000000 24.096466
775.000000 10.805635
776.000000 7.251348
777.000000 19.285190
778.000000 10.864278
779.000000 10.791328
780.000000 20.404126
781.000000 15.717262
782.000000 22.950205
783.000000 18.289128
784.000000 10.921249
785.000000 25.102598
786.000000 24.088373
787.000000 16.806858
788.000000 16.897074
789.000000 16.870119
790.000000 18.143915
791.000000 12.096646
792.000000 7.161721
793.000000 14.556081
794.000000 13.204952
795.000000 19.208524
796.000000 10.782306
797.000000 19.475562
798.000000 20.728557
799.000000 8.510487
800.000000 14.513615
801.000000 10.943882
802.000000 12.032512
803.000000 10.867887
804.000000 13.160065
805.000000 13.320855
806.000000 13.328523
807.000000 19.585146
808.000000 10.820183
809.000000 13.409159
810.000000 19.281768
811.000000 14.495384
812.000000 14.544425
813.000000 18.017239
814.000000 17.941307
815.000000 13.270100
816.000000 14.412907
817.000000 8.445262
818.000000 20.505524
819.000000 15.599344
820.000000 7.326293
821.000000 16.843458
822.000000 25.644893
823.000000 13.244084
824.000000 20.524341
825.000000 12.071982
826.000000 15.660157
827.000000 14.364145
828.000000 10.737321
829.000000 20.553851
830.000000 21.768864
831.000000 17.983744
832.000000 15.636112
833.000000 16.680547
834.000000 19.351668
835.000000 9.649064
836.000000 17.895347
837.000000 22.728628
838.000000 13.387208
839.000000 20.454524
840.000000 10.882515
841.000000 18.036107
842.000000 15.720911
843.000000 19.157707
844.000000 21.776365
845.000000 15.610421
846.000000 13.186716
847.000000 15.592374
848.000000 8.475830
849.000000 16.863263
850.000000 16.998264
851.000000 16.779710
852.000000 9.621828
853.000000 19.360086
854.000000 15.844757
855.000000 10.766283
856.000000 13.155902
857.000000 14.318450
858.000000 10.876774
859.000000 11.943174
860.000000 13.157200
861.000000 18.036456
862.000000 15.520290
863.000000 13.075955
864.000000 12.079581
865.000000 8.420905
866.000000 14.532655
867.000000 18.058372
868.000000 14.415536
869.000000 13.306043
870.000000 10.949309
871.000000 14.386519
872.000000 19.173026
873.000000 9.590208
874.000000 13.130182
875.000000 11.984798
876.000000 15.618608
877.000000 9.514917
878.000000 18.039064
879.000000 6.032756
880.000000 19.345684
881.000000 18.080232
882.000000 17.859539
883.000000 17.876260
884.000000 12.109657
885.000000 13.337932
886.000000 30.500897
887.000000 16.671341
888.000000 13.203597
889.000000 16.690693
890.000000 14.348340
891.000000 23.865785
892.000000 10.900367
893.000000 19.257297
894.000000 11.925583
895.000000 10.802020
896.000000 15.462488
897.000000 10.871466
898.000000 18.074423
899.000000 18.318231
900.000000 15.580503
901.000000 16.750126
902.000000 15.649815
903.000000 5.893140
904.000000 10.720215
905.000000 9.565224
906.000000 8.352096
907.000000 10.797442
908.000000 13.138164
909.000000 14.356557
910.000000 25.058662
911.000000 15.597188
912.000000 11.978991
913.000000 12.044243
914.000000 8.289458
915.000000 20.485902
916.000000 16.750825
917.000000 8.340300
918.000000 9.505934
919.000000 12.088864
920.000000 10.746827
921.000000 16.578386
922.000000 10.825852
923.000000 13.075606
924.000000 13.110494
925.000000 10.757594
926.000000 13.142220
927.000000 14.329627
928.000000 10.744426
929.000000 16.789610
930.000000 15.582420
931.000000 10.815468
932.000000 20.301561
933.000000 15.572572
934.000000 18.030472
935.000000 11.951628
936.000000 21.583516
937.000000 9.615370
938.000000 16.767232
939.000000 22.632855
940.000000 14.238927
941.000000 14.407954
942.000000 4.735152
943.000000 16.672106
944.000000 13.177074
945.000000 10.752995
946.000000 14.207652
947.000000 16.817178
948.000000 17.945585
949.000000 13.154615
950.000000 20.453496
951.000000 9.522412
952.000000 11.866079
953.000000 8.273023
954.000000 7.098103
955.000000 8.350299
956.000000 17.874237
957.000000 20.234176
958.000000 13.016728
959.000000 13.128462
960.000000 12.956064
961.000000 9.604281
962.000000 7.133646
963.000000 19.049727
964.000000 10.710004
965.000000 13.129978
966.000000 10.728513
967.000000 11.945595
968.000000 15.503150
969.000000 10.599443
970.000000 10.739962
971.000000 17.941475
972.000000 8.335919
973.000000 14.252664
974.000000 14.234065
975.000000 10.690154
976.000000 14.262256
977.000000 12.991487
978.000000 11.891698
979.000000 18.980748
980.000000 14.214537
981.000000 14.213523
982.000000 11.849166
983.000000 8.436791
984.000000 11.829636
985.000000 13.118738
986.000000 18.892530
987.000000 8.274705
988.000000 11.786138
989.000000 5.894367
990.000000 11.749505
991.000000 11.865291
992.000000 14.253917
993.000000 8.312950
994.000000 7.039460
995.000000 11.817576
996.000000 10.594962
997.000000 14.239248
998.000000 8.276825
999.000000 9.435053
1000.000000 14.169252
1001.000000 14.222126
1002.000000 11.751922
1003.000000 8.287250
1004.000000 24.808299
1005.000000 14.262767
1006.000000 23.371348
1007.000000 29.352824
1008.000000 34.018670
1009.000000 43.499508
1010.000000 39.262770
1011.000000 28.579109
1012.000000 29.811500
1013.000000 25.849666
1014.000000 25.941861
1015.000000 24.895002
1016.000000 30.819755
1017.000000 23.444408
1018.000000 28.289793
1019.000000 21.277003
1020.000000 37.580070
1021.000000 21.225359
1022.000000 23.445178
1023.000000 18.805378
1024.000000 11.783952
1025.000000 9.423527
1026.000000 15.312816
1027.000000 18.880772
1028.000000 12.912794
1029.000000 8.215990
1030.000000 12.871792
1031.000000 16.459871
1032.000000 17.588771
1033.000000 14.092878
1034.000000 15.303660
1035.000000 5.884349
1036.000000 20.103083
1037.000000 11.753775
1038.000000 12.839956
1039.000000 12.907531
1040.000000 19.884284
1041.000000 10.594397
1042.000000 18.643591
1043.000000 23.623468
1044.000000 20.064758
1045.000000 7.028983
1046.000000 8.155667
1047.000000 11.738685
1048.000000 11.693247
1049.000000 14.076949
1050.000000 15.132012
1051.000000 3.508485
1052.000000 5.863366
1053.000000 11.698894
1054.000000 18.851846
1055.000000 10.500676
1056.000000 5.863547
1057.000000 12.826576
1058.000000 7.060105
1059.000000 11.785364
1060.000000 17.487874
1061.000000 10.451102
1062.000000 15.115819
1063.000000 12.835938
1064.000000 14.052357
1065.000000 17.336080
1066.000000 11.698045
1067.000000 17.515905
1068.000000 11.574443
1069.000000 12.801730
1070.000000 19.790442
1071.000000 15.110881
1072.000000 12.847626
1073.000000 12.803110
1074.000000 11.688750
1075.000000 5.809697
1076.000000 17.435360
1077.000000 11.604167
1078.000000 12.895494
1079.000000 16.322072
1080.000000 5.779715
1081.000000 9.459776
1082.000000 9.335676
1083.000000 13.932010
1084.000000 8.133212
1085.000000 11.650538
1086.000000 9.377565
1087.000000 16.329959
1088.000000 9.309204
1089.000000 6.969062
1090.000000 15.042949
1091.000000 12.811646
1092.000000 9.276527
1093.000000 19.764362
1094.000000 10.416804
1095.000000 8.084078
1096.000000 12.763430
1097.000000 6.956994
1098.000000 11.559542
1099.000000 12.732829
1100.000000 9.292887
1101.000000 12.714190
1102.000000 16.271409
1103.000000 12.755829
1104.000000 5.753388
1105.000000 14.037501
1106.000000 15.032623
1107.000000 13.974923
1108.000000 11.518754
1109.000000 15.156743
1110.000000 16.327484
1111.000000 4.658579
1112.000000 12.635597
1113.000000 18.519707
1114.000000 7.024422
1115.000000 11.486001
1116.000000 6.901021
1117.000000 11.541479
1118.000000 11.543521
1119.000000 12.686786
1120.000000 5.794393
1121.000000 10.424985
1122.000000 8.085061
1123.000000 11.458036
1124.000000 9.221196
1125.000000 10.397723
1126.000000 12.591984
1127.000000 16.211860
1128.000000 11.594999
1129.000000 6.944195
1130.000000 13.749131
1131.000000 16.114565
1132.000000 13.983690
1133.000000 18.345429
1134.000000 4.631976
1135.000000 10.440998
1136.000000 16.206330
1137.000000 9.160124
1138.000000 12.795664
1139.000000 10.408538
1140.000000 10.433437
1141.000000 13.872536
1142.000000 18.382251
1143.000000 9.145475
1144.000000 5.725262
1145.000000 10.389951
1146.000000 8.042993
1147.000000 5.809163
1148.000000 5.732912
1149.000000 12.777869
1150.000000 11.457960
1151.000000 8.089886
1152.000000 13.805751
1153.000000 10.331872
1154.000000 17.318687
1155.000000 5.724390
1156.000000 5.772447
1157.000000 4.664181
1158.000000 9.214937
1159.000000 10.362864
1160.000000 4.586246
1161.000000 10.362731
1162.000000 5.747149
1163.000000 4.631617
1164.000000 6.909186
1165.000000 14.884690
1166.000000 10.356176
1167.000000 12.540054
1168.000000 4.573030
1169.000000 12.730423
1170.000000 11.484759
1171.000000 23.014198
1172.000000 6.851586
1173.000000 10.285183
1174.000000 5.772616
1175.000000 9.193814
1176.000000 6.900188
1177.000000 8.009834
1178.000000 9.209503
1179.000000 10.229286
1180.000000 11.407969
1181.000000 10.327721
1182.000000 2.287727
1183.000000 8.024964
1184.000000 7.993337
1185.000000 12.502802
1186.000000 12.691876
1187.000000 8.030157
1188.000000 8.005430
1189.000000 16.107124
1190.000000 14.869734
1191.000000 5.737206
1192.000000 10.228742
1193.000000 10.204300
1194.000000 4.572697
1195.000000 10.298689
1196.000000 7.993541
1197.000000 6.795966
1198.000000 3.385070
1199.000000 11.359885
1200.000000 9.208996
1201.000000 9.052023
1202.000000 10.277396
1203.000000 10.280221
1204.000000 2.267575
1205.000000 10.328342
1206.000000 11.476987
1207.000000 6.866091
1208.000000 8.001944
1209.000000 3.428752
1210.000000 6.797367
1211.000000 11.448554
1212.000000 9.190308
1213.000000 10.277792
1214.000000 9.167913
1215.000000 2.296229
1216.000000 6.858608
1217.000000 6.849340
1218.000000 11.475610
1219.000000 6.892754
1220.000000 4.545683
1221.000000 10.183592
1222.000000 11.426566
1223.000000 6.881748
1224.000000 10.255286
1225.000000 4.543332
1226.000000 6.787389
1227.000000 10.236145
1228.000000 5.647849
1229.000000 10.232134
1230.000000 5.698216
1231.000000 9.067914
1232.000000 4.573549
1233.000000 4.510271
1234.000000 12.525969
1235.000000 10.184210
1236.000000 5.653397
1237.000000 6.850741
1238.000000 6.830636
1239.000000 7.947519
1240.000000 9.158884
1241.000000 11.344444
1242.000000 10.198800
1243.000000 9.053565
1244.000000 7.937555
1245.000000 6.804067
1246.000000 9.047520
1247.000000 7.855449
1248.000000 5.716855
1249.000000 7.907901
1250.000000 4.528427
1251.000000 9.157667
1252.000000 9.102583
1253.000000 9.076558
1254.000000 7.904595
1255.000000 9.045664
1256.000000 11.374998
1257.000000 4.515670
1258.000000 5.669351
1259.000000 7.968785
1260.000000 3.398419
1261.000000 6.735948
1262.000000 7.881385
1263.000000 7.976309
1264.000000 13.585937
1265.000000 2.255935
1266.000000 5.678810
1267.000000 10.105666
1268.000000 5.635376
1269.000000 9.022667
1270.000000 10.218975
1271.000000 4.541227
1272.000000 3.380180
1273.000000 9.026084
1274.000000 3.395475
1275.000000 2.270283
1276.000000 7.897135
1277.000000 7.939808
1278.000000 5.653248
1279.000000 5.678485
1280.000000 6.795411
1281.000000 6.746909
1282.000000 7.946554
1283.000000 4.525564
1284.000000 5.645964
1285.000000 6.849263
1286.000000 9.097321
1287.000000 5.609900
1288.000000 1.130552
1289.000000 2.255486
1290.000000 9.117909
1291.000000 5.652374
1292.000000 9.103277
1293.000000 2.267320
1294.000000 3.412063
1295.000000 9.046902
1296.000000 9.044875
1297.000000 6.764646
1298.000000 3.353122
1299.000000 4.509023
