# Left column = Time after Trigger in seconds & Right column = # Counts / Exposure = Flux per cm² s
700.000000 6.486279
701.000000 6.511506
702.000000 7.639374
703.000000 8.649073
704.000000 10.831432
705.000000 9.764358
706.000000 5.414864
707.000000 12.965319
708.000000 13.120802
709.000000 9.718691
710.000000 8.681092
711.000000 5.427116
712.000000 8.679061
713.000000 11.912087
714.000000 8.679514
715.000000 15.138130
716.000000 14.186443
717.000000 7.608728
718.000000 5.384075
719.000000 9.846319
720.000000 4.362214
721.000000 11.923988
722.000000 8.688010
723.000000 5.420822
724.000000 10.849835
725.000000 15.167033
726.000000 13.007105
727.000000 9.731150
728.000000 10.904732
729.000000 7.645370
730.000000 6.496260
731.000000 10.845735
732.000000 8.647671
733.000000 6.518746
734.000000 5.386708
735.000000 14.161063
736.000000 7.587611
737.000000 14.217039
738.000000 5.430530
739.000000 14.093905
740.000000 11.948891
741.000000 4.331655
742.000000 6.514324
743.000000 8.705724
744.000000 5.402213
745.000000 8.650626
746.000000 8.623456
747.000000 14.091837
748.000000 16.135657
749.000000 4.316272
750.000000 7.559886
751.000000 9.754362
752.000000 11.894094
753.000000 12.873569
754.000000 10.912022
755.000000 6.439795
756.000000 6.539616
757.000000 9.725409
758.000000 9.730957
759.000000 6.498908
760.000000 9.713565
761.000000 18.290266
762.000000 15.169189
763.000000 6.500230
764.000000 9.783971
765.000000 12.974412
766.000000 7.524360
767.000000 10.813377
768.000000 14.023745
769.000000 9.712434
770.000000 15.126678
771.000000 8.669585
772.000000 2.155133
773.000000 11.953308
774.000000 10.832413
775.000000 10.751240
776.000000 10.805824
777.000000 7.597588
778.000000 8.677594
779.000000 9.743620
780.000000 7.531337
781.000000 10.730668
782.000000 11.878549
783.000000 15.176588
784.000000 8.674883
785.000000 7.585330
786.000000 19.468928
787.000000 11.929094
788.000000 3.229522
789.000000 10.802509
790.000000 8.589249
791.000000 8.657361
792.000000 12.971859
793.000000 7.561319
794.000000 6.489529
795.000000 5.389229
796.000000 14.085039
797.000000 11.892089
798.000000 19.529592
799.000000 7.585800
800.000000 6.501343
801.000000 10.778497
802.000000 9.751318
803.000000 7.514255
804.000000 7.578354
805.000000 15.038787
806.000000 7.604362
807.000000 10.778931
808.000000 8.667146
809.000000 4.331957
810.000000 7.533274
811.000000 7.551717
812.000000 9.721026
813.000000 4.337530
814.000000 14.024821
815.000000 12.939806
816.000000 5.396047
817.000000 5.387568
818.000000 6.486908
819.000000 11.907035
820.000000 10.811388
821.000000 14.010513
822.000000 12.952211
823.000000 12.968343
824.000000 13.999031
825.000000 6.481213
826.000000 7.556437
827.000000 11.876026
828.000000 7.521085
829.000000 7.567961
830.000000 8.592877
831.000000 15.075127
832.000000 5.389568
833.000000 8.573054
834.000000 5.424809
835.000000 7.563677
836.000000 9.696745
837.000000 5.404476
838.000000 13.993960
839.000000 6.480130
840.000000 10.790700
841.000000 9.698824
842.000000 11.902599
843.000000 16.322660
844.000000 14.082915
845.000000 20.525502
846.000000 3.241673
847.000000 5.391288
848.000000 5.395168
849.000000 8.675911
850.000000 12.995949
851.000000 7.499795
852.000000 7.590115
853.000000 14.047655
854.000000 10.825659
855.000000 7.533839
856.000000 11.770475
857.000000 7.545755
858.000000 10.781129
859.000000 10.699544
860.000000 14.071849
861.000000 8.678820
862.000000 11.863703
863.000000 8.671088
864.000000 11.808770
865.000000 14.028979
866.000000 13.985762
867.000000 12.934852
868.000000 12.935357
869.000000 11.849467
870.000000 9.704804
871.000000 8.605868
872.000000 8.658724
873.000000 8.691336
874.000000 3.232484
875.000000 12.842683
876.000000 4.314882
877.000000 11.904524
878.000000 11.830483
879.000000 8.618803
880.000000 8.605759
881.000000 6.461354
882.000000 11.818424
883.000000 11.871818
884.000000 3.241356
885.000000 9.724427
886.000000 7.637446
887.000000 6.417560
888.000000 10.784370
889.000000 8.571513
890.000000 4.314423
891.000000 3.254351
892.000000 7.548979
893.000000 7.594060
894.000000 8.665534
895.000000 9.687529
896.000000 9.653305
897.000000 8.657729
898.000000 9.700393
899.000000 5.326759
900.000000 6.467121
901.000000 20.459329
902.000000 8.659690
903.000000 11.833175
904.000000 15.050088
905.000000 11.809845
906.000000 9.656151
907.000000 10.723008
908.000000 7.512091
909.000000 5.415748
910.000000 6.499137
911.000000 6.480575
912.000000 10.765053
913.000000 7.538784
914.000000 9.677064
915.000000 8.670198
916.000000 6.460386
917.000000 7.530065
918.000000 9.642087
919.000000 10.759419
920.000000 15.101375
921.000000 5.378889
922.000000 8.636450
923.000000 10.748597
924.000000 13.979842
925.000000 6.448801
926.000000 7.582742
927.000000 7.589330
928.000000 10.757382
929.000000 10.773961
930.000000 15.094138
931.000000 11.856464
932.000000 10.708300
933.000000 7.552750
934.000000 3.223147
935.000000 10.838052
936.000000 11.835823
937.000000 10.740221
938.000000 11.792258
939.000000 15.190808
940.000000 11.786027
941.000000 13.985737
942.000000 8.601992
943.000000 7.514373
944.000000 7.494310
945.000000 6.441962
946.000000 13.997248
947.000000 9.690675
948.000000 3.225875
949.000000 9.735229
950.000000 6.440517
951.000000 7.602601
952.000000 10.837342
953.000000 9.704454
954.000000 9.723247
955.000000 7.526749
956.000000 7.552780
957.000000 6.444809
958.000000 8.569552
959.000000 9.618833
960.000000 15.093435
961.000000 12.822860
962.000000 6.408841
963.000000 10.763782
964.000000 12.981540
965.000000 10.752148
966.000000 7.602776
967.000000 6.451034
968.000000 8.645245
969.000000 5.360622
970.000000 6.419174
971.000000 9.642907
972.000000 8.547149
973.000000 8.622458
974.000000 11.821233
975.000000 4.312130
976.000000 8.568131
977.000000 8.564299
978.000000 13.961307
979.000000 7.509485
980.000000 11.864950
981.000000 7.514047
982.000000 10.767080
983.000000 6.453521
984.000000 7.491008
985.000000 6.438802
986.000000 8.599442
987.000000 16.022124
988.000000 5.327952
989.000000 11.769261
990.000000 9.614150
991.000000 5.360835
992.000000 12.976088
993.000000 12.873009
994.000000 11.806098
995.000000 7.476934
996.000000 7.512858
997.000000 17.164820
998.000000 11.745861
999.000000 5.375922
1000.000000 7.478220
1001.000000 13.953738
1002.000000 11.839551
1003.000000 10.727129
1004.000000 8.575059
1005.000000 12.895974
1006.000000 10.721273
1007.000000 9.675393
1008.000000 11.818472
1009.000000 4.307314
1010.000000 9.650484
1011.000000 10.743435
1012.000000 3.222024
1013.000000 9.715377
1014.000000 9.655119
1015.000000 15.018351
1016.000000 8.586448
1017.000000 8.620730
1018.000000 11.856735
1019.000000 11.821989
1020.000000 10.682227
1021.000000 9.633172
1022.000000 7.481528
1023.000000 9.696019
1024.000000 12.881654
1025.000000 26.815985
1026.000000 17.280795
1027.000000 14.006625
1028.000000 43.313755
1029.000000 50.488892
1030.000000 45.619100
1031.000000 27.944271
1032.000000 18.281842
1033.000000 28.001859
1034.000000 16.049808
1035.000000 7.490894
1036.000000 10.710044
1037.000000 16.168767
1038.000000 10.706651
1039.000000 9.629100
1040.000000 7.512744
1041.000000 10.708421
1042.000000 8.523166
1043.000000 11.834894
1044.000000 8.618585
1045.000000 7.449789
1046.000000 16.169137
1047.000000 12.823725
1048.000000 8.556524
1049.000000 7.500318
1050.000000 5.415075
1051.000000 10.722187
1052.000000 10.794169
1053.000000 13.918445
1054.000000 10.760822
1055.000000 13.889906
1056.000000 15.080199
1057.000000 8.525833
1058.000000 10.734733
1059.000000 13.938993
1060.000000 4.278305
1061.000000 8.563499
1062.000000 6.417016
1063.000000 7.532529
1064.000000 5.382222
1065.000000 8.554410
1066.000000 8.583376
1067.000000 5.369027
1068.000000 8.551800
1069.000000 5.364090
1070.000000 9.679493
1071.000000 7.478097
1072.000000 6.445427
1073.000000 4.310474
1074.000000 4.265503
1075.000000 8.630311
1076.000000 5.361367
1077.000000 2.156242
1078.000000 7.534305
1079.000000 7.494640
1080.000000 8.628022
1081.000000 10.756367
1082.000000 16.063171
1083.000000 8.593560
1084.000000 10.718112
1085.000000 11.789120
1086.000000 5.329652
1087.000000 13.984429
1088.000000 8.531751
1089.000000 5.405575
1090.000000 9.645072
1091.000000 11.782180
1092.000000 10.742477
1093.000000 15.050088
1094.000000 4.333634
1095.000000 6.424010
1096.000000 8.558267
1097.000000 7.526584
1098.000000 7.511118
1099.000000 8.542970
1100.000000 7.496683
1101.000000 4.300601
1102.000000 11.844203
1103.000000 11.797286
1104.000000 10.747333
1105.000000 11.813666
1106.000000 7.511180
1107.000000 9.716924
1108.000000 16.110141
1109.000000 5.372886
1110.000000 10.786871
1111.000000 15.069506
1112.000000 15.015511
1113.000000 7.519416
1114.000000 8.574020
1115.000000 4.274414
1116.000000 13.916823
1117.000000 10.711146
1118.000000 7.507505
1119.000000 9.637581
1120.000000 6.381073
1121.000000 15.986683
1122.000000 9.644911
1123.000000 8.602947
1124.000000 12.899300
1125.000000 5.350245
1126.000000 7.503603
1127.000000 11.772245
1128.000000 11.790623
1129.000000 8.521120
1130.000000 11.770667
1131.000000 8.584967
1132.000000 5.382409
1133.000000 11.816107
1134.000000 15.003375
1135.000000 6.415245
1136.000000 8.582448
1137.000000 13.920693
1138.000000 12.882338
1139.000000 9.644833
1140.000000 11.788722
1141.000000 4.265155
1142.000000 6.441098
1143.000000 7.531794
1144.000000 5.357261
1145.000000 10.668010
1146.000000 6.495683
1147.000000 11.752327
1148.000000 8.606601
1149.000000 8.600425
1150.000000 7.466215
1151.000000 7.498008
1152.000000 10.700984
1153.000000 9.623462
1154.000000 10.680799
1155.000000 7.495501
1156.000000 16.077042
1157.000000 8.553846
1158.000000 5.345494
1159.000000 8.597597
1160.000000 11.797341
1161.000000 10.695855
1162.000000 9.661039
1163.000000 10.708115
1164.000000 8.603155
1165.000000 9.568646
1166.000000 12.818426
1167.000000 8.574805
1168.000000 9.685460
1169.000000 7.478668
1170.000000 9.656423
1171.000000 12.900944
1172.000000 15.028923
1173.000000 7.517240
1174.000000 9.585412
1175.000000 7.535461
1176.000000 8.618010
1177.000000 11.846373
1178.000000 9.734959
1179.000000 12.877563
1180.000000 4.291775
1181.000000 6.405990
1182.000000 10.677174
1183.000000 16.081493
1184.000000 10.726046
1185.000000 15.014337
1186.000000 5.368277
1187.000000 10.715004
1188.000000 6.392250
1189.000000 14.948312
1190.000000 7.550890
1191.000000 8.582706
1192.000000 12.892389
1193.000000 10.710247
1194.000000 9.623394
1195.000000 10.752045
1196.000000 11.735633
1197.000000 8.591112
1198.000000 17.038653
1199.000000 9.657012
1200.000000 10.768639
1201.000000 7.522303
1202.000000 8.562782
1203.000000 6.412694
1204.000000 6.436502
1205.000000 17.193018
1206.000000 13.951032
1207.000000 10.746450
1208.000000 13.961056
1209.000000 11.761638
1210.000000 10.744731
1211.000000 10.695108
1212.000000 13.915177
1213.000000 8.619632
1214.000000 9.656181
1215.000000 7.521495
1216.000000 15.060229
1217.000000 11.825978
1218.000000 13.983130
1219.000000 7.494407
1220.000000 9.655019
1221.000000 5.387431
1222.000000 7.523297
1223.000000 7.502293
1224.000000 8.577571
1225.000000 11.837309
1226.000000 8.569139
1227.000000 11.808672
1228.000000 8.597251
1229.000000 11.776945
1230.000000 6.401111
1231.000000 7.506832
1232.000000 13.904136
1233.000000 12.868919
1234.000000 8.599958
1235.000000 13.815524
1236.000000 9.623073
1237.000000 9.652248
1238.000000 9.642033
1239.000000 5.393075
1240.000000 12.874326
1241.000000 17.040828
1242.000000 10.760193
1243.000000 12.829344
1244.000000 7.494920
1245.000000 8.540961
1246.000000 7.525406
1247.000000 3.225096
1248.000000 6.442653
1249.000000 10.734978
1250.000000 6.443930
1251.000000 6.422623
1252.000000 10.706186
1253.000000 4.275195
1254.000000 8.584287
1255.000000 6.423812
1256.000000 8.569375
1257.000000 6.435085
1258.000000 8.535892
1259.000000 8.598442
1260.000000 13.879251
1261.000000 6.416108
1262.000000 14.951180
1263.000000 5.365656
1264.000000 11.832213
1265.000000 10.702997
1266.000000 8.556777
1267.000000 10.692479
1268.000000 9.666021
1269.000000 11.808905
1270.000000 10.788410
1271.000000 12.886462
1272.000000 8.584458
1273.000000 6.442902
1274.000000 6.423463
1275.000000 7.483007
1276.000000 7.474568
1277.000000 7.507951
1278.000000 8.544739
1279.000000 8.602359
1280.000000 5.375979
1281.000000 8.545993
1282.000000 11.775853
1283.000000 8.578605
1284.000000 10.690342
1285.000000 7.554211
1286.000000 7.481912
1287.000000 9.607826
1288.000000 12.937954
1289.000000 11.796256
1290.000000 8.601467
1291.000000 14.980933
1292.000000 9.664875
1293.000000 11.737986
1294.000000 10.703396
1295.000000 6.430021
1296.000000 9.655255
1297.000000 9.622473
1298.000000 7.507518
1299.000000 5.344972
