# Left column = Time after Trigger in seconds & Right column = # Counts / Exposure = Flux per cm² s
700.000000 8.635996
701.000000 6.500957
702.000000 6.460045
703.000000 9.733270
704.000000 17.271886
705.000000 7.519738
706.000000 17.233160
707.000000 10.690814
708.000000 8.609971
709.000000 7.495458
710.000000 11.882616
711.000000 7.483670
712.000000 7.584855
713.000000 5.390710
714.000000 11.810440
715.000000 7.519346
716.000000 12.880717
717.000000 14.021826
718.000000 11.872440
719.000000 8.629459
720.000000 11.828964
721.000000 8.685358
722.000000 6.488253
723.000000 8.649065
724.000000 8.628577
725.000000 10.814868
726.000000 7.527400
727.000000 6.474086
728.000000 10.789083
729.000000 5.440180
730.000000 10.783587
731.000000 6.529460
732.000000 7.519324
733.000000 6.490650
734.000000 6.420018
735.000000 7.544926
736.000000 7.592227
737.000000 13.936332
738.000000 9.686648
739.000000 10.789678
740.000000 8.588094
741.000000 7.572465
742.000000 6.461140
743.000000 8.685812
744.000000 3.223940
745.000000 8.664357
746.000000 11.821369
747.000000 11.804443
748.000000 6.504458
749.000000 9.645508
750.000000 6.508391
751.000000 8.600644
752.000000 8.604236
753.000000 9.812823
754.000000 15.025661
755.000000 12.978872
756.000000 7.590363
757.000000 5.371161
758.000000 8.631161
759.000000 6.498139
760.000000 6.445807
761.000000 8.646270
762.000000 6.454841
763.000000 6.529022
764.000000 3.236556
765.000000 8.610527
766.000000 12.920515
767.000000 11.830119
768.000000 6.490350
769.000000 11.861601
770.000000 7.539724
771.000000 6.521048
772.000000 4.323856
773.000000 11.882845
774.000000 6.475958
775.000000 15.021105
776.000000 5.409679
777.000000 4.321052
778.000000 5.409274
779.000000 9.719980
780.000000 8.663401
781.000000 3.217325
782.000000 7.509639
783.000000 8.684854
784.000000 8.660226
785.000000 8.642553
786.000000 6.454919
787.000000 11.987039
788.000000 8.656472
789.000000 6.471436
790.000000 4.317767
791.000000 11.871288
792.000000 4.322969
793.000000 8.646138
794.000000 11.940322
795.000000 14.074388
796.000000 2.162247
797.000000 7.572898
798.000000 6.432372
799.000000 8.675812
800.000000 5.399609
801.000000 5.380168
802.000000 6.470147
803.000000 9.645014
804.000000 3.259758
805.000000 10.798164
806.000000 8.668164
807.000000 6.528424
808.000000 5.382296
809.000000 6.519607
810.000000 9.691150
811.000000 5.429930
812.000000 10.805176
813.000000 5.404214
814.000000 12.950701
815.000000 14.031068
816.000000 8.628737
817.000000 8.621065
818.000000 6.443830
819.000000 4.331660
820.000000 13.952826
821.000000 8.600260
822.000000 8.612102
823.000000 8.641135
824.000000 4.328127
825.000000 8.676771
826.000000 9.661815
827.000000 9.763569
828.000000 8.604282
829.000000 8.672535
830.000000 9.729641
831.000000 5.429491
832.000000 9.761923
833.000000 11.804670
834.000000 9.699214
835.000000 6.480092
836.000000 6.459248
837.000000 9.751964
838.000000 9.684424
839.000000 8.630822
840.000000 5.408564
841.000000 9.746447
842.000000 5.384299
843.000000 11.856304
844.000000 4.324194
845.000000 5.407740
846.000000 3.246968
847.000000 12.931455
848.000000 15.154238
849.000000 6.458953
850.000000 9.755167
851.000000 9.666604
852.000000 6.480398
853.000000 9.705165
854.000000 10.831527
855.000000 8.632723
856.000000 9.680940
857.000000 4.313534
858.000000 5.401635
859.000000 9.746467
860.000000 8.687125
861.000000 6.516296
862.000000 17.219512
863.000000 5.442763
864.000000 5.401282
865.000000 6.503896
866.000000 6.478018
867.000000 5.402896
868.000000 4.315937
869.000000 9.718342
870.000000 8.627518
871.000000 4.323751
872.000000 9.669138
873.000000 8.683606
874.000000 10.763162
875.000000 9.676295
876.000000 6.491973
877.000000 14.005910
878.000000 8.657619
879.000000 16.145002
880.000000 7.566074
881.000000 3.252220
882.000000 9.707103
883.000000 12.883754
884.000000 16.236926
885.000000 12.925582
886.000000 9.730459
887.000000 7.568777
888.000000 10.808361
889.000000 3.231198
890.000000 7.609377
891.000000 4.314433
892.000000 8.602372
893.000000 9.786861
894.000000 6.471966
895.000000 8.671860
896.000000 9.691589
897.000000 12.883246
898.000000 7.559603
899.000000 9.779233
900.000000 4.302686
901.000000 7.531937
902.000000 6.471200
903.000000 4.316112
904.000000 10.838832
905.000000 7.547218
906.000000 8.634005
907.000000 10.835740
908.000000 7.547274
909.000000 9.743960
910.000000 8.660334
911.000000 9.746397
912.000000 10.738001
913.000000 8.686132
914.000000 14.009467
915.000000 9.716622
916.000000 10.777967
917.000000 9.744170
918.000000 15.213580
919.000000 9.767561
920.000000 10.893108
921.000000 12.961287
922.000000 9.695834
923.000000 9.772660
924.000000 6.497964
925.000000 7.563387
926.000000 8.684906
927.000000 4.314742
928.000000 9.692597
929.000000 9.718298
930.000000 15.218068
931.000000 7.614438
932.000000 6.506015
933.000000 6.523980
934.000000 12.898567
935.000000 7.514026
936.000000 9.685044
937.000000 7.571720
938.000000 11.961027
939.000000 7.566641
940.000000 10.801580
941.000000 12.967353
942.000000 10.816406
943.000000 5.434176
944.000000 6.475010
945.000000 11.877702
946.000000 10.800403
947.000000 8.675476
948.000000 6.506851
949.000000 6.476532
950.000000 6.494684
951.000000 8.694537
952.000000 5.400916
953.000000 9.774415
954.000000 7.511211
955.000000 8.672167
956.000000 9.733210
957.000000 9.728891
958.000000 10.772057
959.000000 7.592599
960.000000 0.000000
961.000000 9.707615
962.000000 14.076975
963.000000 7.515266
964.000000 5.413093
965.000000 7.570608
966.000000 11.914548
967.000000 7.585515
968.000000 14.006359
969.000000 7.554274
970.000000 2.165698
971.000000 6.482171
972.000000 3.250245
973.000000 7.584467
974.000000 6.469344
975.000000 6.478082
976.000000 1.077848
977.000000 7.545203
978.000000 11.899741
979.000000 0.000000
980.000000 14.151641
981.000000 9.739062
982.000000 7.581724
983.000000 3.256826
984.000000 4.309906
985.000000 5.383995
986.000000 5.418101
987.000000 6.474526
988.000000 4.351020
989.000000 14.065590
990.000000 13.075042
991.000000 7.619899
992.000000 8.692168
993.000000 5.385126
994.000000 8.670469
995.000000 9.724428
996.000000 6.486028
997.000000 10.822046
998.000000 5.415302
999.000000 9.825828
1000.000000 8.679267
1001.000000 9.741685
1002.000000 13.101360
1003.000000 9.761875
1004.000000 10.832509
1005.000000 11.951195
1006.000000 11.912807
1007.000000 17.437539
1008.000000 6.487403
1009.000000 7.593215
1010.000000 5.456885
1011.000000 6.526772
1012.000000 5.408361
1013.000000 5.421662
1014.000000 4.362509
1015.000000 6.514481
1016.000000 10.802801
1017.000000 38.042600
1018.000000 18.502355
1019.000000 12.017552
1020.000000 14.078383
1021.000000 10.863882
1022.000000 15.211353
1023.000000 9.727415
1024.000000 4.356058
1025.000000 4.325899
1026.000000 5.400781
1027.000000 3.249659
1028.000000 14.058713
1029.000000 8.704589
1030.000000 6.499973
1031.000000 3.261151
1032.000000 7.553807
1033.000000 8.664097
1034.000000 4.331787
1035.000000 5.450844
1036.000000 5.419962
1037.000000 6.465048
1038.000000 4.323263
1039.000000 12.963534
1040.000000 4.351907
1041.000000 6.448947
1042.000000 7.571129
1043.000000 10.821472
1044.000000 6.523928
1045.000000 6.496862
1046.000000 6.500083
1047.000000 8.700790
1048.000000 3.238963
1049.000000 6.528554
1050.000000 5.403428
1051.000000 8.689381
1052.000000 7.628161
1053.000000 5.407098
1054.000000 3.251145
1055.000000 6.504253
1056.000000 5.422079
1057.000000 10.886796
1058.000000 5.488399
1059.000000 4.323536
1060.000000 7.652071
1061.000000 4.347496
1062.000000 10.817271
1063.000000 10.900613
1064.000000 1.082024
1065.000000 7.617875
1066.000000 8.641120
1067.000000 11.843019
1068.000000 8.661966
1069.000000 4.339543
1070.000000 5.403696
1071.000000 5.409763
1072.000000 2.174101
1073.000000 5.417413
1074.000000 9.785349
1075.000000 8.623551
1076.000000 3.262331
1077.000000 5.394360
1078.000000 6.499972
1079.000000 5.389682
1080.000000 5.398063
1081.000000 8.680134
1082.000000 3.272114
1083.000000 6.506309
1084.000000 8.664844
1085.000000 7.543256
1086.000000 9.755481
1087.000000 6.468148
1088.000000 7.559421
1089.000000 13.027384
1090.000000 8.639831
1091.000000 6.527499
1092.000000 4.315332
1093.000000 6.514335
1094.000000 1.078886
1095.000000 6.490258
1096.000000 3.258861
1097.000000 6.495447
1098.000000 4.313501
1099.000000 4.328625
1100.000000 8.666997
1101.000000 5.418694
1102.000000 9.715638
1103.000000 10.856448
1104.000000 8.654621
1105.000000 1.086334
1106.000000 7.571169
1107.000000 3.247147
1108.000000 3.256207
1109.000000 2.165157
1110.000000 3.270119
1111.000000 4.370438
1112.000000 4.331192
1113.000000 2.180561
1114.000000 5.411333
1115.000000 5.409779
1116.000000 5.408579
1117.000000 5.450299
1118.000000 7.657028
1119.000000 8.668047
1120.000000 6.500795
1121.000000 6.515102
1122.000000 12.994686
1123.000000 1.089020
1124.000000 5.447221
1125.000000 6.500171
1126.000000 7.597386
1127.000000 13.028810
1128.000000 6.458216
1129.000000 5.466441
1130.000000 6.534312
1131.000000 5.383066
1132.000000 8.647388
1133.000000 7.587405
1134.000000 10.769829
1135.000000 5.421335
1136.000000 3.264379
1137.000000 3.253092
1138.000000 5.419285
1139.000000 5.442412
1140.000000 2.164586
1141.000000 9.775908
1142.000000 6.462984
1143.000000 8.670622
1144.000000 5.435260
1145.000000 5.397082
1146.000000 4.359672
1147.000000 6.509082
1148.000000 5.411216
1149.000000 4.337397
1150.000000 4.327240
1151.000000 3.250203
1152.000000 4.359707
1153.000000 3.240091
1154.000000 8.671544
1155.000000 4.334175
1156.000000 5.407024
1157.000000 4.342109
1158.000000 5.397073
1159.000000 4.330931
1160.000000 5.398685
1161.000000 1.081951
1162.000000 2.164252
1163.000000 5.433751
1164.000000 0.000000
1165.000000 6.542553
1166.000000 6.505382
1167.000000 4.361166
1168.000000 9.752583
1169.000000 5.429913
1170.000000 6.503139
1171.000000 11.876250
1172.000000 5.410188
1173.000000 9.751171
1174.000000 7.599822
1175.000000 7.561764
1176.000000 5.406524
1177.000000 8.671229
1178.000000 11.956872
1179.000000 4.327934
1180.000000 4.327096
1181.000000 1.079249
1182.000000 4.353756
1183.000000 6.518471
1184.000000 4.318154
1185.000000 7.564320
1186.000000 2.163283
1187.000000 3.269775
1188.000000 7.585926
1189.000000 2.165467
1190.000000 4.337609
1191.000000 8.712001
1192.000000 2.154276
1193.000000 6.503669
1194.000000 8.680034
1195.000000 4.316114
1196.000000 9.822107
1197.000000 7.566357
1198.000000 0.000000
1199.000000 4.323935
1200.000000 7.576875
1201.000000 1.086196
1202.000000 6.486603
1203.000000 6.469462
1204.000000 6.539681
1205.000000 2.171883
1206.000000 6.510657
1207.000000 4.332979
1208.000000 5.407990
1209.000000 11.944619
1210.000000 6.542526
1211.000000 11.894797
1212.000000 3.267775
1213.000000 3.266583
1214.000000 8.686901
1215.000000 9.802346
1216.000000 7.614424
1217.000000 6.498490
1218.000000 5.443657
1219.000000 3.224925
1220.000000 4.350659
1221.000000 2.176574
1222.000000 7.523284
1223.000000 4.371458
1224.000000 8.689377
1225.000000 7.596427
1226.000000 5.441369
1227.000000 8.710678
1228.000000 7.588488
1229.000000 5.401455
1230.000000 2.179299
1231.000000 5.408712
1232.000000 3.254445
1233.000000 7.596459
1234.000000 5.446901
1235.000000 6.538488
1236.000000 3.264672
1237.000000 2.182410
1238.000000 3.255246
1239.000000 4.367651
1240.000000 7.570275
1241.000000 5.421624
1242.000000 5.415578
1243.000000 2.175810
1244.000000 5.451518
1245.000000 9.779399
1246.000000 5.417016
1247.000000 5.412779
1248.000000 5.405007
1249.000000 5.446289
1250.000000 3.244431
1251.000000 5.417746
1252.000000 1.091618
1253.000000 3.230457
1254.000000 6.536483
1255.000000 6.523114
1256.000000 1.076922
1257.000000 4.303332
1258.000000 5.466344
1259.000000 5.400379
1260.000000 2.167916
1261.000000 2.172451
1262.000000 2.175150
1263.000000 5.404036
1264.000000 6.528034
1265.000000 8.716603
1266.000000 1.082303
1267.000000 8.651183
1268.000000 6.518947
1269.000000 5.411583
1270.000000 6.541398
1271.000000 6.515313
1272.000000 4.352320
1273.000000 5.430486
1274.000000 6.543293
1275.000000 10.787428
1276.000000 8.638466
1277.000000 3.270740
1278.000000 3.283939
1279.000000 5.459102
1280.000000 5.421668
1281.000000 4.370677
1282.000000 7.586885
1283.000000 4.348379
1284.000000 5.457416
1285.000000 6.485771
1286.000000 6.549996
1287.000000 5.445325
1288.000000 5.446100
1289.000000 3.260529
1290.000000 5.412710
1291.000000 4.338630
1292.000000 1.084022
1293.000000 6.532517
1294.000000 3.271358
1295.000000 2.170738
1296.000000 4.333034
1297.000000 4.366344
1298.000000 4.330943
1299.000000 5.404202
