# Left column = Time after Trigger in seconds & Right column = # Counts / Exposure = Flux per cm² s
700.000000 15.742329
701.000000 10.149582
702.000000 7.919878
703.000000 19.120976
704.000000 16.924219
705.000000 15.823913
706.000000 15.857232
707.000000 20.274686
708.000000 13.527549
709.000000 14.879411
710.000000 20.306812
711.000000 11.328588
712.000000 14.646383
713.000000 10.133658
714.000000 16.958329
715.000000 13.678622
716.000000 8.993642
717.000000 20.240610
718.000000 18.082633
719.000000 19.223968
720.000000 15.950728
721.000000 21.447823
722.000000 22.553339
723.000000 12.411429
724.000000 20.344767
725.000000 10.230594
726.000000 14.824127
727.000000 16.986312
728.000000 18.034913
729.000000 19.195275
730.000000 24.785352
731.000000 15.909688
732.000000 10.189942
733.000000 13.586649
734.000000 13.611308
735.000000 21.483813
736.000000 9.011747
737.000000 6.862862
738.000000 7.959073
739.000000 13.614039
740.000000 14.757206
741.000000 19.218451
742.000000 18.208581
743.000000 17.020924
744.000000 13.588823
745.000000 17.968551
746.000000 8.995226
747.000000 10.206608
748.000000 19.210735
749.000000 14.718961
750.000000 12.499237
751.000000 18.012984
752.000000 16.977795
753.000000 26.012713
754.000000 15.987963
755.000000 14.623513
756.000000 18.138255
757.000000 19.225739
758.000000 23.719783
759.000000 14.626154
760.000000 17.034788
761.000000 18.151807
762.000000 13.562393
763.000000 11.322973
764.000000 13.622995
765.000000 19.255896
766.000000 19.296225
767.000000 17.014080
768.000000 16.858345
769.000000 18.101379
770.000000 23.804023
771.000000 21.508443
772.000000 20.602238
773.000000 11.322802
774.000000 10.126899
775.000000 18.305686
776.000000 21.568520
777.000000 13.590752
778.000000 19.280348
779.000000 12.443007
780.000000 13.636444
781.000000 18.095444
782.000000 11.314059
783.000000 21.645336
784.000000 13.652881
785.000000 20.457328
786.000000 14.729233
787.000000 22.627609
788.000000 19.212838
789.000000 15.877176
790.000000 19.098692
791.000000 19.230608
792.000000 11.367294
793.000000 16.976878
794.000000 15.828652
795.000000 23.804443
796.000000 19.322924
797.000000 13.567997
798.000000 15.856622
799.000000 18.161913
800.000000 14.700819
801.000000 26.117694
802.000000 12.537227
803.000000 20.330716
804.000000 19.317049
805.000000 10.231274
806.000000 8.035824
807.000000 15.743278
808.000000 7.893694
809.000000 16.991113
810.000000 18.352630
811.000000 25.961672
812.000000 21.457926
813.000000 14.674834
814.000000 15.881198
815.000000 13.671956
816.000000 11.383165
817.000000 9.079489
818.000000 15.843329
819.000000 16.897499
820.000000 12.546611
821.000000 14.802829
822.000000 14.970425
823.000000 20.482791
824.000000 19.238720
825.000000 14.764183
826.000000 11.395014
827.000000 12.455616
828.000000 19.156498
829.000000 13.598786
830.000000 13.569552
831.000000 11.358722
832.000000 19.360822
833.000000 10.190950
834.000000 10.248613
835.000000 20.176585
836.000000 10.207106
837.000000 11.290864
838.000000 9.079404
839.000000 12.438976
840.000000 15.897322
841.000000 14.899508
842.000000 24.807389
843.000000 9.048230
844.000000 13.572151
845.000000 14.805782
846.000000 15.898591
847.000000 15.860642
848.000000 20.391370
849.000000 15.852226
850.000000 17.994945
851.000000 14.631639
852.000000 17.076946
853.000000 15.828336
854.000000 11.361361
855.000000 9.151587
856.000000 12.542813
857.000000 23.807950
858.000000 13.632464
859.000000 15.934959
860.000000 11.389552
861.000000 19.363231
862.000000 14.681581
863.000000 20.383160
864.000000 16.969400
865.000000 13.778640
866.000000 14.842788
867.000000 6.821534
868.000000 19.208831
869.000000 12.512324
870.000000 22.680462
871.000000 21.387991
872.000000 17.051713
873.000000 20.558088
874.000000 6.813192
875.000000 18.193282
876.000000 10.202833
877.000000 17.110203
878.000000 12.483063
879.000000 17.182456
880.000000 17.151729
881.000000 18.155219
882.000000 18.102971
883.000000 10.193604
884.000000 6.832562
885.000000 21.550058
886.000000 13.816286
887.000000 12.453741
888.000000 13.593288
889.000000 13.661031
890.000000 13.597341
891.000000 10.244838
892.000000 12.545470
893.000000 15.986086
894.000000 15.833053
895.000000 29.537862
896.000000 15.884531
897.000000 21.516666
898.000000 11.376253
899.000000 26.006235
900.000000 15.866113
901.000000 13.577570
902.000000 13.720328
903.000000 12.558009
904.000000 13.673744
905.000000 11.446843
906.000000 27.236656
907.000000 19.128289
908.000000 15.972503
909.000000 18.181491
910.000000 23.984593
911.000000 14.658059
912.000000 9.169943
913.000000 15.929685
914.000000 14.782014
915.000000 15.974010
916.000000 14.762466
917.000000 15.966760
918.000000 20.276781
919.000000 13.561057
920.000000 20.337831
921.000000 14.858001
922.000000 14.727860
923.000000 11.362292
924.000000 19.384608
925.000000 10.187873
926.000000 19.333495
927.000000 13.625871
928.000000 13.545488
929.000000 16.916122
930.000000 22.740038
931.000000 11.351993
932.000000 13.617388
933.000000 18.082913
934.000000 17.108158
935.000000 11.388677
936.000000 15.902011
937.000000 17.056422
938.000000 14.669205
939.000000 12.514759
940.000000 14.780688
941.000000 12.532649
942.000000 13.691962
943.000000 11.417526
944.000000 10.224904
945.000000 17.054955
946.000000 21.567664
947.000000 18.177315
948.000000 19.268704
949.000000 10.213737
950.000000 14.753929
951.000000 16.996699
952.000000 13.766844
953.000000 21.598859
954.000000 25.125767
955.000000 19.309958
956.000000 18.211666
957.000000 19.427130
958.000000 19.452297
959.000000 12.508687
960.000000 16.999117
961.000000 14.785103
962.000000 18.153824
963.000000 20.509279
964.000000 6.865098
965.000000 14.686674
966.000000 13.606890
967.000000 14.748514
968.000000 7.934976
969.000000 15.869952
970.000000 9.102035
971.000000 22.740573
972.000000 19.286374
973.000000 14.715098
974.000000 5.707085
975.000000 17.107682
976.000000 13.719157
977.000000 18.319579
978.000000 23.783336
979.000000 14.845357
980.000000 16.962088
981.000000 10.195631
982.000000 17.027441
983.000000 15.854506
984.000000 18.257093
985.000000 26.179657
986.000000 17.004482
987.000000 14.727858
988.000000 16.935856
989.000000 19.379401
990.000000 11.367228
991.000000 18.237203
992.000000 11.363710
993.000000 10.239464
994.000000 15.985813
995.000000 14.749697
996.000000 15.913105
997.000000 23.920905
998.000000 38.831693
999.000000 41.109642
1000.000000 46.566613
1001.000000 63.722976
1002.000000 87.953106
1003.000000 53.581144
1004.000000 39.824115
1005.000000 27.290839
1006.000000 28.496521
1007.000000 23.909965
1008.000000 40.862593
1009.000000 28.353003
1010.000000 26.159329
1011.000000 25.127149
1012.000000 25.077824
1013.000000 24.877139
1014.000000 29.592405
1015.000000 15.949101
1016.000000 17.039824
1017.000000 23.788468
1018.000000 23.925718
1019.000000 19.371589
1020.000000 15.957914
1021.000000 18.162144
1022.000000 21.502856
1023.000000 12.552730
1024.000000 13.715878
1025.000000 10.220303
1026.000000 15.890772
1027.000000 15.923993
1028.000000 10.242394
1029.000000 18.265428
1030.000000 12.516589
1031.000000 20.388041
1032.000000 18.281707
1033.000000 20.424697
1034.000000 15.845921
1035.000000 19.343445
1036.000000 22.880168
1037.000000 10.188103
1038.000000 13.644484
1039.000000 17.154816
1040.000000 16.046784
1041.000000 13.538422
1042.000000 14.832040
1043.000000 15.832451
1044.000000 13.724734
1045.000000 14.785293
1046.000000 20.623162
1047.000000 11.319453
1048.000000 14.726717
1049.000000 12.490565
1050.000000 12.409382
1051.000000 19.512865
1052.000000 11.357745
1053.000000 22.660813
1054.000000 9.019312
1055.000000 13.571375
1056.000000 14.912694
1057.000000 17.074541
1058.000000 9.084978
1059.000000 15.994766
1060.000000 15.902652
1061.000000 20.422118
1062.000000 11.345911
1063.000000 15.986958
1064.000000 13.718857
1065.000000 24.111268
1066.000000 21.717131
1067.000000 15.974963
1068.000000 20.409837
1069.000000 12.519780
1070.000000 18.212235
1071.000000 19.430248
1072.000000 7.938633
1073.000000 21.664478
1074.000000 12.566542
1075.000000 15.950546
1076.000000 18.118417
1077.000000 20.528442
1078.000000 9.143585
1079.000000 14.786194
1080.000000 14.689008
1081.000000 19.123005
1082.000000 10.258908
1083.000000 9.093229
1084.000000 14.844054
1085.000000 14.705773
1086.000000 15.913277
1087.000000 10.176149
1088.000000 13.563938
1089.000000 14.904882
1090.000000 11.364879
1091.000000 14.794320
1092.000000 16.929119
1093.000000 19.208042
1094.000000 13.764569
1095.000000 10.182145
1096.000000 11.286374
1097.000000 17.012792
1098.000000 14.765804
1099.000000 11.352186
1100.000000 13.531640
1101.000000 20.371440
1102.000000 20.390721
1103.000000 10.228173
1104.000000 23.839401
1105.000000 12.427153
1106.000000 21.528964
1107.000000 16.004459
1108.000000 15.871473
1109.000000 18.236949
1110.000000 13.714715
1111.000000 10.180581
1112.000000 9.124328
1113.000000 10.342269
1114.000000 12.470509
1115.000000 18.082650
1116.000000 18.241201
1117.000000 21.674345
1118.000000 15.909557
1119.000000 18.055639
1120.000000 11.295487
1121.000000 20.430512
1122.000000 13.624968
1123.000000 16.860540
1124.000000 9.079168
1125.000000 24.837160
1126.000000 14.771619
1127.000000 12.499316
1128.000000 18.157273
1129.000000 11.342397
1130.000000 11.309808
1131.000000 17.040346
1132.000000 20.291138
1133.000000 17.066438
1134.000000 15.835259
1135.000000 13.720805
1136.000000 14.724374
1137.000000 15.806255
1138.000000 7.997020
1139.000000 20.273918
1140.000000 21.476207
1141.000000 10.146961
1142.000000 18.279727
1143.000000 9.029137
1144.000000 12.409949
1145.000000 20.380139
1146.000000 12.525053
1147.000000 13.574007
1148.000000 16.952386
1149.000000 7.949625
1150.000000 14.747524
1151.000000 19.152108
1152.000000 19.328245
1153.000000 14.775991
1154.000000 20.374085
1155.000000 14.746427
1156.000000 18.075019
1157.000000 18.033069
1158.000000 12.562767
1159.000000 12.445675
1160.000000 22.701001
1161.000000 16.981788
1162.000000 13.625322
1163.000000 19.286283
1164.000000 17.028306
1165.000000 6.805232
1166.000000 7.870579
1167.000000 20.455410
1168.000000 13.583730
1169.000000 20.555157
1170.000000 11.306814
1171.000000 17.083746
1172.000000 15.885231
1173.000000 17.015012
1174.000000 18.081151
1175.000000 12.511247
1176.000000 17.079769
1177.000000 13.465277
1178.000000 21.427568
1179.000000 21.495907
1180.000000 10.184791
1181.000000 12.500882
1182.000000 12.462912
1183.000000 21.488537
1184.000000 13.603410
1185.000000 20.274824
1186.000000 10.169445
1187.000000 14.656179
1188.000000 18.205804
1189.000000 12.468003
1190.000000 15.753058
1191.000000 17.159579
1192.000000 11.359197
1193.000000 17.990464
1194.000000 15.947982
1195.000000 10.198600
1196.000000 11.312064
1197.000000 18.106351
1198.000000 14.724157
1199.000000 15.782043
1200.000000 15.822973
1201.000000 12.430418
1202.000000 15.807626
1203.000000 20.418607
1204.000000 22.581943
1205.000000 14.824242
1206.000000 16.852855
1207.000000 19.345296
1208.000000 18.057560
1209.000000 15.929327
1210.000000 14.517291
1211.000000 12.500644
1212.000000 7.894612
1213.000000 15.742923
1214.000000 14.661294
1215.000000 7.907984
1216.000000 11.373923
1217.000000 16.928619
1218.000000 12.493022
1219.000000 15.810504
1220.000000 18.055076
1221.000000 6.809048
1222.000000 15.819399
1223.000000 22.623333
1224.000000 15.961039
1225.000000 5.609870
1226.000000 20.352146
1227.000000 13.582304
1228.000000 11.332638
1229.000000 12.454446
1230.000000 13.731156
1231.000000 18.083101
1232.000000 15.785219
1233.000000 14.648154
1234.000000 19.196313
1235.000000 11.345056
1236.000000 15.995959
1237.000000 12.473284
1238.000000 21.407981
1239.000000 13.656826
1240.000000 15.726759
1241.000000 14.704599
1242.000000 9.131247
1243.000000 18.082995
1244.000000 11.241215
1245.000000 10.225904
1246.000000 18.288415
1247.000000 12.322369
1248.000000 16.975540
1249.000000 16.835585
1250.000000 15.798070
1251.000000 11.261963
1252.000000 18.247266
1253.000000 18.271540
1254.000000 11.228492
1255.000000 7.972023
1256.000000 14.508112
1257.000000 11.290526
1258.000000 11.189789
1259.000000 18.033011
1260.000000 18.007703
1261.000000 12.441557
1262.000000 13.571769
1263.000000 14.717484
1264.000000 14.553654
1265.000000 9.015863
1266.000000 20.454864
1267.000000 10.186689
1268.000000 10.129855
1269.000000 10.181651
1270.000000 13.504152
1271.000000 10.181357
1272.000000 9.045923
1273.000000 7.832925
1274.000000 12.342709
1275.000000 14.625326
1276.000000 14.700323
1277.000000 19.169136
1278.000000 15.890048
1279.000000 20.404974
1280.000000 22.644187
1281.000000 14.726420
1282.000000 11.412875
1283.000000 13.551292
1284.000000 14.546359
1285.000000 14.673927
1286.000000 13.512808
1287.000000 18.207417
1288.000000 12.442904
1289.000000 9.021778
1290.000000 13.461162
1291.000000 7.915351
1292.000000 10.086565
1293.000000 19.233815
1294.000000 13.493008
1295.000000 21.552583
1296.000000 20.434566
1297.000000 15.714156
1298.000000 13.489919
1299.000000 20.360217
