# Left column = Time after Trigger in seconds & Right column = # Counts / Exposure = Flux per cm² s
700.000000 1.092071
701.000000 1.089048
702.000000 1.079128
703.000000 3.272159
704.000000 1.084759
705.000000 2.189178
706.000000 2.193345
707.000000 0.000000
708.000000 1.091761
709.000000 3.269435
710.000000 1.087808
711.000000 1.089602
712.000000 0.000000
713.000000 1.095217
714.000000 1.099587
715.000000 1.089636
716.000000 1.094794
717.000000 2.198007
718.000000 2.170390
719.000000 1.092638
720.000000 4.391167
721.000000 3.273573
722.000000 2.182109
723.000000 3.278247
724.000000 3.239522
725.000000 0.000000
726.000000 1.092265
727.000000 1.094691
728.000000 2.190275
729.000000 2.173043
730.000000 0.000000
731.000000 2.197778
732.000000 0.000000
733.000000 2.198484
734.000000 2.175460
735.000000 2.190237
736.000000 0.000000
737.000000 2.178349
738.000000 1.096158
739.000000 2.176440
740.000000 0.000000
741.000000 5.449424
742.000000 4.379876
743.000000 1.092467
744.000000 0.000000
745.000000 3.279823
746.000000 1.093444
747.000000 0.000000
748.000000 2.200426
749.000000 4.356259
750.000000 2.188622
751.000000 1.096920
752.000000 3.282380
753.000000 7.621622
754.000000 1.092470
755.000000 2.197379
756.000000 4.372604
757.000000 2.186899
758.000000 4.373093
759.000000 2.189585
760.000000 4.362542
761.000000 2.179089
762.000000 2.181251
763.000000 4.381818
764.000000 5.472851
765.000000 5.461435
766.000000 0.000000
767.000000 0.000000
768.000000 1.092495
769.000000 2.198181
770.000000 3.295136
771.000000 1.096263
772.000000 5.449690
773.000000 1.098127
774.000000 3.283965
775.000000 0.000000
776.000000 2.192609
777.000000 1.089289
778.000000 1.090691
779.000000 4.342622
780.000000 6.607912
781.000000 2.181451
782.000000 0.000000
783.000000 4.348838
784.000000 2.186642
785.000000 1.093446
786.000000 2.159901
787.000000 2.180926
788.000000 2.186658
789.000000 2.177548
790.000000 3.290964
791.000000 3.280600
792.000000 4.368017
793.000000 0.000000
794.000000 2.180637
795.000000 0.000000
796.000000 2.180759
797.000000 2.179836
798.000000 4.382480
799.000000 2.183358
800.000000 3.277631
801.000000 1.086471
802.000000 4.346337
803.000000 3.268010
804.000000 1.087725
805.000000 3.273947
806.000000 3.290966
807.000000 4.340791
808.000000 4.350673
809.000000 8.772153
810.000000 4.397542
811.000000 3.277499
812.000000 3.258340
813.000000 2.175522
814.000000 2.182525
815.000000 1.089710
816.000000 4.351508
817.000000 4.348853
818.000000 5.451486
819.000000 3.269359
820.000000 2.188758
821.000000 4.352374
822.000000 4.377927
823.000000 1.092011
824.000000 5.472937
825.000000 2.179173
826.000000 7.628489
827.000000 3.282528
828.000000 5.448912
829.000000 3.282795
830.000000 4.378627
831.000000 3.289051
832.000000 5.448652
833.000000 4.351914
834.000000 1.095615
835.000000 2.180867
836.000000 5.428293
837.000000 5.475798
838.000000 3.259152
839.000000 2.196570
840.000000 3.253744
841.000000 7.602788
842.000000 2.178486
843.000000 3.250825
844.000000 4.374893
845.000000 8.712343
846.000000 4.343033
847.000000 3.293850
848.000000 2.192297
849.000000 3.292239
850.000000 2.189117
851.000000 5.421016
852.000000 2.167101
853.000000 2.189209
854.000000 1.086530
855.000000 2.181754
856.000000 7.639896
857.000000 5.450653
858.000000 4.389865
859.000000 5.479034
860.000000 5.466238
861.000000 6.556357
862.000000 6.594196
863.000000 4.390956
864.000000 0.000000
865.000000 4.351185
866.000000 3.265666
867.000000 3.261027
868.000000 5.455293
869.000000 4.388546
870.000000 2.158593
871.000000 4.408450
872.000000 4.352370
873.000000 6.592942
874.000000 6.537194
875.000000 6.547438
876.000000 5.467408
877.000000 1.094873
878.000000 2.188568
879.000000 1.103238
880.000000 7.655613
881.000000 7.633057
882.000000 4.376502
883.000000 3.279901
884.000000 3.274779
885.000000 2.178169
886.000000 5.473026
887.000000 5.406141
888.000000 8.736525
889.000000 3.268205
890.000000 6.591531
891.000000 5.449920
892.000000 1.087193
893.000000 6.571927
894.000000 2.176157
895.000000 5.461302
896.000000 9.751859
897.000000 9.734898
898.000000 2.173118
899.000000 6.551978
900.000000 2.170878
901.000000 7.626021
902.000000 5.438739
903.000000 5.429965
904.000000 8.759276
905.000000 3.253319
906.000000 4.399095
907.000000 6.517966
908.000000 3.280912
909.000000 3.265638
910.000000 5.465989
911.000000 2.185734
912.000000 10.848346
913.000000 2.169840
914.000000 4.346709
915.000000 4.353173
916.000000 11.969680
917.000000 9.810905
918.000000 5.440073
919.000000 4.397670
920.000000 7.620875
921.000000 5.475340
922.000000 7.629044
923.000000 2.174149
924.000000 5.421998
925.000000 7.581953
926.000000 5.450649
927.000000 10.901883
928.000000 6.546095
929.000000 2.170034
930.000000 7.573533
931.000000 4.330667
932.000000 6.524512
933.000000 5.417537
934.000000 8.748904
935.000000 4.376363
936.000000 13.008346
937.000000 3.267742
938.000000 4.355451
939.000000 4.359890
940.000000 6.527755
941.000000 11.947358
942.000000 5.458624
943.000000 3.246444
944.000000 7.603500
945.000000 6.514194
946.000000 8.703769
947.000000 6.544505
948.000000 6.493886
949.000000 4.359139
950.000000 7.670514
951.000000 12.982850
952.000000 4.327418
953.000000 10.851362
954.000000 2.172596
955.000000 5.400087
956.000000 4.330675
957.000000 9.765572
958.000000 8.752462
959.000000 5.436922
960.000000 5.425541
961.000000 6.520957
962.000000 6.571421
963.000000 8.592370
964.000000 5.453933
965.000000 4.352078
966.000000 3.263750
967.000000 7.617218
968.000000 4.357253
969.000000 5.425716
970.000000 8.698706
971.000000 6.508607
972.000000 14.145304
973.000000 3.246927
974.000000 3.249025
975.000000 5.422782
976.000000 4.318802
977.000000 4.360611
978.000000 5.436490
979.000000 3.266681
980.000000 8.765934
981.000000 10.823955
982.000000 7.667347
983.000000 5.483018
984.000000 5.433114
985.000000 7.558087
986.000000 4.352809
987.000000 6.526527
988.000000 3.239874
989.000000 8.681072
990.000000 8.630144
991.000000 2.178753
992.000000 7.614038
993.000000 8.689203
994.000000 19.505152
995.000000 9.761808
996.000000 8.612391
997.000000 9.777257
998.000000 6.521515
999.000000 10.897059
1000.000000 16.329903
1001.000000 6.530741
1002.000000 6.533620
1003.000000 7.563243
1004.000000 9.825825
1005.000000 17.416502
1006.000000 60.569229
1007.000000 94.862530
1008.000000 110.957699
1009.000000 107.044304
1010.000000 98.383020
1011.000000 79.738228
1012.000000 82.063673
1013.000000 64.067387
1014.000000 46.672443
1015.000000 59.773921
1016.000000 39.370028
1017.000000 39.353711
1018.000000 30.494289
1019.000000 49.000850
1020.000000 32.685807
1021.000000 25.076791
1022.000000 24.938981
1023.000000 26.118566
1024.000000 18.390900
1025.000000 26.208570
1026.000000 22.763061
1027.000000 6.483315
1028.000000 14.136766
1029.000000 12.975959
1030.000000 11.878624
1031.000000 10.826815
1032.000000 11.973026
1033.000000 13.005605
1034.000000 8.678392
1035.000000 8.747113
1036.000000 16.306513
1037.000000 16.393198
1038.000000 13.071698
1039.000000 15.257750
1040.000000 9.700284
1041.000000 14.189850
1042.000000 9.790293
1043.000000 5.433326
1044.000000 13.051569
1045.000000 9.809396
1046.000000 14.081016
1047.000000 9.754624
1048.000000 16.392662
1049.000000 15.201606
1050.000000 7.596174
1051.000000 15.210745
1052.000000 6.502799
1053.000000 11.933445
1054.000000 13.059024
1055.000000 17.367504
1056.000000 9.799528
1057.000000 7.573830
1058.000000 13.073238
1059.000000 10.832331
1060.000000 18.370251
1061.000000 6.497735
1062.000000 8.642260
1063.000000 9.796807
1064.000000 5.450804
1065.000000 9.728975
1066.000000 7.607165
1067.000000 9.751731
1068.000000 13.021763
1069.000000 7.588524
1070.000000 6.528766
1071.000000 9.733756
1072.000000 14.102416
1073.000000 13.015632
1074.000000 8.712284
1075.000000 9.786179
1076.000000 6.506076
1077.000000 6.502521
1078.000000 13.078898
1079.000000 9.788034
1080.000000 8.718467
1081.000000 14.038261
1082.000000 11.987551
1083.000000 9.789637
1084.000000 7.576224
1085.000000 7.543086
1086.000000 11.906044
1087.000000 9.789197
1088.000000 10.947591
1089.000000 10.896902
1090.000000 11.910579
1091.000000 11.907534
1092.000000 10.802812
1093.000000 8.723546
1094.000000 5.437387
1095.000000 6.495232
1096.000000 13.037206
1097.000000 13.090454
1098.000000 9.727205
1099.000000 7.579405
1100.000000 6.520470
1101.000000 7.641915
1102.000000 13.045867
1103.000000 8.698558
1104.000000 10.865861
1105.000000 14.140397
1106.000000 7.592928
1107.000000 11.983442
1108.000000 14.067389
1109.000000 8.716138
1110.000000 6.576461
1111.000000 12.992512
1112.000000 9.744167
1113.000000 9.780595
1114.000000 14.114893
1115.000000 16.252708
1116.000000 7.640138
1117.000000 7.606664
1118.000000 5.401509
1119.000000 8.742241
1120.000000 6.545978
1121.000000 9.737068
1122.000000 11.967060
1123.000000 10.915171
1124.000000 8.732567
1125.000000 8.656458
1126.000000 7.603591
1127.000000 15.103141
1128.000000 9.852660
1129.000000 7.642275
1130.000000 9.790997
1131.000000 5.477645
1132.000000 11.972890
1133.000000 10.894099
1134.000000 5.427404
1135.000000 7.595509
1136.000000 7.573805
1137.000000 12.948159
1138.000000 14.123251
1139.000000 9.795018
1140.000000 7.589529
1141.000000 6.537018
1142.000000 9.815625
1143.000000 17.507204
1144.000000 15.271409
1145.000000 11.990255
1146.000000 8.712039
1147.000000 3.293063
1148.000000 6.559675
1149.000000 10.801903
1150.000000 10.933569
1151.000000 8.717440
1152.000000 9.793376
1153.000000 0.000000
1154.000000 8.774177
1155.000000 8.692003
1156.000000 10.942182
1157.000000 6.561085
1158.000000 8.633571
1159.000000 7.614392
1160.000000 13.019632
1161.000000 13.221233
1162.000000 13.041289
1163.000000 8.706683
1164.000000 13.106459
1165.000000 4.371611
1166.000000 16.119826
1167.000000 12.941918
1168.000000 11.970285
1169.000000 10.840800
1170.000000 6.532334
1171.000000 14.219429
1172.000000 8.698868
1173.000000 8.770768
1174.000000 8.722506
1175.000000 6.542549
1176.000000 11.963849
1177.000000 11.992849
1178.000000 7.642043
1179.000000 16.306097
1180.000000 8.695591
1181.000000 4.363126
1182.000000 10.868956
1183.000000 9.778407
1184.000000 12.092543
1185.000000 10.905510
1186.000000 9.794083
1187.000000 10.912685
1188.000000 8.735867
1189.000000 9.826707
1190.000000 4.356796
1191.000000 9.795144
1192.000000 13.025599
1193.000000 7.656953
1194.000000 7.655464
1195.000000 8.714701
1196.000000 15.239905
1197.000000 5.453190
1198.000000 6.551342
1199.000000 12.013945
1200.000000 5.428948
1201.000000 8.716036
1202.000000 9.779029
1203.000000 9.760920
1204.000000 8.665381
1205.000000 9.790608
1206.000000 9.785037
1207.000000 7.606574
1208.000000 10.899888
1209.000000 10.876693
1210.000000 8.742620
1211.000000 14.139946
1212.000000 14.303878
1213.000000 12.012414
1214.000000 8.778942
1215.000000 13.121099
1216.000000 10.903392
1217.000000 11.985376
1218.000000 5.456913
1219.000000 8.667934
1220.000000 23.093454
1221.000000 6.546212
1222.000000 12.081248
1223.000000 11.975405
1224.000000 15.277577
1225.000000 16.532135
1226.000000 5.424193
1227.000000 7.634860
1228.000000 11.967945
1229.000000 13.032886
1230.000000 8.763481
1231.000000 15.284421
1232.000000 8.737474
1233.000000 14.117784
1234.000000 7.595868
1235.000000 15.327167
1236.000000 8.737765
1237.000000 12.015113
1238.000000 7.692435
1239.000000 7.666654
1240.000000 18.398931
1241.000000 12.028395
1242.000000 6.612623
1243.000000 15.221807
1244.000000 9.797503
1245.000000 14.254017
1246.000000 8.693804
1247.000000 10.956606
1248.000000 4.387628
1249.000000 8.691985
1250.000000 9.786828
1251.000000 13.059155
1252.000000 4.377813
1253.000000 7.648189
1254.000000 4.356282
1255.000000 10.895279
1256.000000 7.655109
1257.000000 10.869320
1258.000000 10.919733
1259.000000 9.820905
1260.000000 6.571451
1261.000000 6.532269
1262.000000 12.050292
1263.000000 8.749191
1264.000000 10.900997
1265.000000 10.924404
1266.000000 8.730881
1267.000000 7.713834
1268.000000 13.064267
1269.000000 8.693132
1270.000000 11.978356
1271.000000 5.459298
1272.000000 10.830896
1273.000000 8.747902
1274.000000 11.954496
1275.000000 9.854066
1276.000000 7.663238
1277.000000 10.969535
1278.000000 7.660355
1279.000000 7.690795
1280.000000 19.817397
1281.000000 7.660317
1282.000000 5.468506
1283.000000 12.127818
1284.000000 12.138592
1285.000000 4.348209
1286.000000 6.559694
1287.000000 14.171156
1288.000000 7.724031
1289.000000 5.466620
1290.000000 8.775798
1291.000000 11.017403
1292.000000 12.166650
1293.000000 5.461907
1294.000000 9.857320
1295.000000 13.041388
1296.000000 13.070642
1297.000000 18.615753
1298.000000 7.671984
1299.000000 7.641280
