# Left column = Time after Trigger in seconds & Right column = # Counts / Exposure = Flux per cm² s
700.000000 13.143469
701.000000 7.628636
702.000000 7.614600
703.000000 13.101950
704.000000 13.073804
705.000000 14.228021
706.000000 15.358718
707.000000 14.273344
708.000000 10.975829
709.000000 13.080848
710.000000 5.503619
711.000000 8.784976
712.000000 11.027581
713.000000 22.982545
714.000000 17.505133
715.000000 6.574180
716.000000 14.145590
717.000000 15.329383
718.000000 6.518175
719.000000 10.923228
720.000000 6.538710
721.000000 15.288891
722.000000 8.764847
723.000000 13.162659
724.000000 16.387654
725.000000 17.455300
726.000000 10.982574
727.000000 3.265542
728.000000 20.707658
729.000000 12.033210
730.000000 11.999674
731.000000 18.533462
732.000000 13.093637
733.000000 8.759980
734.000000 9.861258
735.000000 15.179060
736.000000 14.234485
737.000000 17.478449
738.000000 11.931167
739.000000 7.612771
740.000000 6.540176
741.000000 13.144088
742.000000 14.240080
743.000000 10.892675
744.000000 18.533406
745.000000 17.505003
746.000000 8.733299
747.000000 14.117134
748.000000 10.849516
749.000000 12.014275
750.000000 14.156278
751.000000 8.774354
752.000000 18.603031
753.000000 6.511967
754.000000 12.052015
755.000000 13.141761
756.000000 13.112805
757.000000 10.877262
758.000000 9.826665
759.000000 6.606055
760.000000 14.132117
761.000000 9.817428
762.000000 15.391554
763.000000 15.174547
764.000000 7.623590
765.000000 7.686906
766.000000 9.866417
767.000000 11.892273
768.000000 11.942446
769.000000 8.712663
770.000000 9.812458
771.000000 6.619392
772.000000 8.687883
773.000000 8.745139
774.000000 17.427141
775.000000 7.588066
776.000000 12.005866
777.000000 9.791473
778.000000 10.839072
779.000000 7.620597
780.000000 10.897511
781.000000 8.698261
782.000000 9.888428
783.000000 7.610351
784.000000 5.428913
785.000000 14.158025
786.000000 2.184981
787.000000 5.447066
788.000000 7.661965
789.000000 7.606460
790.000000 9.776200
791.000000 8.757149
792.000000 9.862010
793.000000 13.078427
794.000000 6.518347
795.000000 8.690962
796.000000 13.099079
797.000000 8.695498
798.000000 15.286329
799.000000 9.816474
800.000000 5.450218
801.000000 10.877458
802.000000 11.996258
803.000000 8.736300
804.000000 15.209454
805.000000 12.089912
806.000000 9.692671
807.000000 7.636930
808.000000 7.625051
809.000000 15.296117
810.000000 12.998993
811.000000 9.737704
812.000000 13.116550
813.000000 10.917612
814.000000 10.849811
815.000000 7.604507
816.000000 9.820913
817.000000 8.702151
818.000000 13.100573
819.000000 8.734911
820.000000 11.940652
821.000000 11.904056
822.000000 6.485088
823.000000 9.796123
824.000000 8.735466
825.000000 8.645921
826.000000 5.443786
827.000000 9.733003
828.000000 14.201202
829.000000 10.846757
830.000000 9.770516
831.000000 8.643128
832.000000 5.406084
833.000000 14.158167
834.000000 10.837342
835.000000 15.280416
836.000000 10.859455
837.000000 7.595571
838.000000 7.630969
839.000000 5.433938
840.000000 5.459677
841.000000 10.953115
842.000000 9.840930
843.000000 9.780429
844.000000 9.709128
845.000000 17.421809
846.000000 10.894537
847.000000 9.823205
848.000000 10.822962
849.000000 8.659157
850.000000 10.834341
851.000000 15.234519
852.000000 4.338044
853.000000 13.099040
854.000000 8.669686
855.000000 11.944760
856.000000 10.823917
857.000000 8.710927
858.000000 3.270313
859.000000 11.905109
860.000000 8.625970
861.000000 8.650804
862.000000 9.722929
863.000000 8.668921
864.000000 9.797298
865.000000 11.940592
866.000000 12.031737
867.000000 11.936469
868.000000 10.857225
869.000000 6.518210
870.000000 7.608705
871.000000 9.749302
872.000000 8.674453
873.000000 7.578650
874.000000 11.883733
875.000000 13.013907
876.000000 9.797860
877.000000 7.580162
878.000000 9.734784
879.000000 3.248792
880.000000 4.345099
881.000000 9.717191
882.000000 1.081082
883.000000 6.528280
884.000000 10.851288
885.000000 9.710702
886.000000 10.858801
887.000000 11.921026
888.000000 7.605417
889.000000 10.882366
890.000000 15.105616
891.000000 15.195959
892.000000 9.760344
893.000000 8.660154
894.000000 5.383878
895.000000 9.742639
896.000000 9.712490
897.000000 9.790902
898.000000 8.682129
899.000000 10.832998
900.000000 13.074182
901.000000 13.098462
902.000000 9.776759
903.000000 7.542872
904.000000 13.038010
905.000000 9.832299
906.000000 9.702605
907.000000 10.913380
908.000000 6.504544
909.000000 10.840348
910.000000 6.467144
911.000000 8.788876
912.000000 10.900370
913.000000 8.624721
914.000000 15.093614
915.000000 11.867871
916.000000 14.083451
917.000000 11.826897
918.000000 8.672033
919.000000 9.771905
920.000000 4.332174
921.000000 9.760306
922.000000 9.772612
923.000000 11.867611
924.000000 6.473725
925.000000 7.599081
926.000000 3.232209
927.000000 9.810882
928.000000 11.941431
929.000000 12.940327
930.000000 14.088883
931.000000 9.712875
932.000000 9.767582
933.000000 5.394231
934.000000 6.506429
935.000000 5.407468
936.000000 12.981721
937.000000 5.394267
938.000000 11.898784
939.000000 6.485145
940.000000 14.015350
941.000000 3.269452
942.000000 9.755364
943.000000 5.439143
944.000000 6.473938
945.000000 14.106554
946.000000 16.274346
947.000000 15.211632
948.000000 10.768242
949.000000 14.107190
950.000000 7.503119
951.000000 9.748165
952.000000 15.186885
953.000000 9.742593
954.000000 7.598103
955.000000 9.721972
956.000000 13.036698
957.000000 6.502350
958.000000 9.780023
959.000000 6.500229
960.000000 13.009995
961.000000 20.633106
962.000000 6.499068
963.000000 13.011930
964.000000 7.545684
965.000000 8.655406
966.000000 10.886086
967.000000 5.398282
968.000000 9.736125
969.000000 11.868874
970.000000 4.302787
971.000000 4.329774
972.000000 4.317066
973.000000 13.026890
974.000000 9.735532
975.000000 7.571190
976.000000 9.734027
977.000000 8.668879
978.000000 7.589270
979.000000 9.750619
980.000000 6.474297
981.000000 16.154567
982.000000 10.771531
983.000000 6.490385
984.000000 7.613985
985.000000 4.348849
986.000000 9.815583
987.000000 13.091597
988.000000 4.293271
989.000000 7.521773
990.000000 11.821473
991.000000 6.531887
992.000000 7.589476
993.000000 11.939097
994.000000 5.402545
995.000000 11.882453
996.000000 7.537531
997.000000 10.856773
998.000000 18.389867
999.000000 10.855875
1000.000000 8.600396
1001.000000 15.128614
1002.000000 9.728217
1003.000000 9.707792
1004.000000 24.944774
1005.000000 36.799482
1006.000000 23.740350
1007.000000 14.015713
1008.000000 12.947711
1009.000000 10.765540
1010.000000 15.170354
1011.000000 13.021330
1012.000000 8.686681
1013.000000 14.101669
1014.000000 14.052864
1015.000000 8.642105
1016.000000 10.773571
1017.000000 10.795504
1018.000000 19.456944
1019.000000 19.430904
1020.000000 12.872241
1021.000000 8.606024
1022.000000 10.741685
1023.000000 18.386521
1024.000000 10.850545
1025.000000 11.813700
1026.000000 10.831694
1027.000000 8.720165
1028.000000 9.717717
1029.000000 7.552153
1030.000000 7.567161
1031.000000 7.579051
1032.000000 8.619660
1033.000000 7.542742
1034.000000 10.786697
1035.000000 8.630645
1036.000000 7.568394
1037.000000 12.967570
1038.000000 6.509870
1039.000000 11.875898
1040.000000 6.481952
1041.000000 12.911767
1042.000000 10.761573
1043.000000 8.571972
1044.000000 13.976112
1045.000000 16.283867
1046.000000 7.639340
1047.000000 13.998952
1048.000000 5.393873
1049.000000 11.779958
1050.000000 11.836683
1051.000000 9.724358
1052.000000 3.233696
1053.000000 7.550176
1054.000000 12.841945
1055.000000 12.915956
1056.000000 6.455826
1057.000000 7.563070
1058.000000 8.647159
1059.000000 10.786025
1060.000000 13.932297
1061.000000 10.792260
1062.000000 9.742272
1063.000000 10.816504
1064.000000 8.597236
1065.000000 7.548933
1066.000000 7.540532
1067.000000 7.552793
1068.000000 10.831321
1069.000000 6.503449
1070.000000 11.856045
1071.000000 7.537708
1072.000000 6.457374
1073.000000 12.919499
1074.000000 10.801903
1075.000000 10.771995
1076.000000 5.390826
1077.000000 7.545063
1078.000000 7.528466
1079.000000 9.690008
1080.000000 16.142671
1081.000000 8.611969
1082.000000 7.531204
1083.000000 8.645106
1084.000000 5.394481
1085.000000 4.313766
1086.000000 6.486359
1087.000000 8.632301
1088.000000 5.389779
1089.000000 11.854405
1090.000000 8.565699
1091.000000 5.426776
1092.000000 8.574052
1093.000000 9.650508
1094.000000 6.479594
1095.000000 10.820900
1096.000000 15.213951
1097.000000 7.563805
1098.000000 8.608905
1099.000000 11.811566
1100.000000 8.615249
1101.000000 6.448610
1102.000000 4.331176
1103.000000 9.746544
1104.000000 9.690652
1105.000000 12.942738
1106.000000 7.550790
1107.000000 12.906185
1108.000000 5.404002
1109.000000 7.555930
1110.000000 16.191298
1111.000000 7.495389
1112.000000 9.631910
1113.000000 8.629941
1114.000000 5.389765
1115.000000 10.777606
1116.000000 15.122800
1117.000000 5.360183
1118.000000 3.218293
1119.000000 4.306832
1120.000000 8.665376
1121.000000 6.490695
1122.000000 9.707601
1123.000000 7.474283
1124.000000 14.029083
1125.000000 5.406105
1126.000000 8.582220
1127.000000 8.605370
1128.000000 7.522931
1129.000000 4.288249
1130.000000 9.750614
1131.000000 4.289201
1132.000000 6.481452
1133.000000 8.605555
1134.000000 5.386244
1135.000000 11.872129
1136.000000 8.656716
1137.000000 9.745587
1138.000000 9.713594
1139.000000 3.248763
1140.000000 5.387055
1141.000000 12.919476
1142.000000 6.491569
1143.000000 10.759715
1144.000000 4.306361
1145.000000 11.974164
1146.000000 9.727134
1147.000000 11.839654
1148.000000 8.638753
1149.000000 5.424004
1150.000000 4.314289
1151.000000 7.537069
1152.000000 11.856430
1153.000000 4.312974
1154.000000 12.977071
1155.000000 6.470745
1156.000000 4.300709
1157.000000 10.752317
1158.000000 8.565363
1159.000000 10.755471
1160.000000 7.515370
1161.000000 7.593645
1162.000000 5.364998
1163.000000 6.465481
1164.000000 7.519185
1165.000000 11.858545
1166.000000 3.232887
1167.000000 4.325010
1168.000000 3.264281
1169.000000 8.640453
1170.000000 7.566900
1171.000000 8.612727
1172.000000 10.783548
1173.000000 6.437901
1174.000000 3.218210
1175.000000 7.560254
1176.000000 11.867460
1177.000000 4.290080
1178.000000 8.623039
1179.000000 11.886576
1180.000000 5.393081
1181.000000 7.524658
1182.000000 5.372322
1183.000000 12.873772
1184.000000 3.204083
1185.000000 7.552883
1186.000000 7.536099
1187.000000 11.878378
1188.000000 3.219426
1189.000000 10.775630
1190.000000 5.404119
1191.000000 10.701811
1192.000000 10.753514
1193.000000 7.525839
1194.000000 3.223690
1195.000000 8.606104
1196.000000 8.628864
1197.000000 5.410664
1198.000000 7.578529
1199.000000 7.539667
1200.000000 6.483721
1201.000000 6.478762
1202.000000 4.317341
1203.000000 4.293705
1204.000000 8.664661
1205.000000 6.465369
1206.000000 8.596908
1207.000000 8.570677
1208.000000 6.430875
1209.000000 6.435860
1210.000000 11.898973
1211.000000 8.627636
1212.000000 4.300627
1213.000000 8.598836
1214.000000 7.501303
1215.000000 4.297199
1216.000000 4.289402
1217.000000 7.528711
1218.000000 3.232173
1219.000000 8.548832
1220.000000 6.445484
1221.000000 5.375861
1222.000000 4.299825
1223.000000 3.224733
1224.000000 9.662904
1225.000000 5.394198
1226.000000 8.599764
1227.000000 7.546719
1228.000000 6.473183
1229.000000 2.145265
1230.000000 11.823895
1231.000000 4.303995
1232.000000 3.229458
1233.000000 7.498758
1234.000000 5.382847
1235.000000 8.682453
1236.000000 7.532018
1237.000000 8.621084
1238.000000 6.455687
1239.000000 5.354834
1240.000000 6.462187
1241.000000 4.287311
1242.000000 2.152420
1243.000000 6.458474
1244.000000 10.760088
1245.000000 3.209792
1246.000000 5.381491
1247.000000 5.363803
1248.000000 8.591165
1249.000000 8.692107
1250.000000 6.444757
1251.000000 2.154314
1252.000000 8.601441
1253.000000 6.477613
1254.000000 3.234308
1255.000000 4.300837
1256.000000 6.453567
1257.000000 4.282418
1258.000000 7.543999
1259.000000 5.374769
1260.000000 6.480366
1261.000000 4.302516
1262.000000 9.688053
1263.000000 1.075452
1264.000000 5.415504
1265.000000 5.392035
1266.000000 9.739501
1267.000000 4.312441
1268.000000 4.300614
1269.000000 9.643137
1270.000000 7.510799
1271.000000 6.440453
1272.000000 3.212081
1273.000000 5.408543
1274.000000 10.756696
1275.000000 5.361158
1276.000000 7.537316
1277.000000 4.295520
1278.000000 9.730982
1279.000000 5.380793
1280.000000 6.500091
1281.000000 9.666450
1282.000000 8.664331
1283.000000 5.437546
1284.000000 5.368263
1285.000000 2.143890
1286.000000 7.558701
1287.000000 7.523149
1288.000000 7.555442
1289.000000 2.154288
1290.000000 4.332369
1291.000000 2.145970
1292.000000 6.427198
1293.000000 11.850976
1294.000000 3.235847
1295.000000 5.367637
1296.000000 4.292688
1297.000000 5.386404
1298.000000 2.148380
1299.000000 4.297156
