# Left column = Time after Trigger in seconds & Right column = # Counts / Exposure = Flux per cm² s
700.000000 1.080597
701.000000 7.628989
702.000000 4.327024
703.000000 3.243238
704.000000 6.531447
705.000000 8.648816
706.000000 8.590436
707.000000 5.419288
708.000000 7.529584
709.000000 3.229808
710.000000 4.328635
711.000000 4.329418
712.000000 8.681427
713.000000 3.255893
714.000000 2.161422
715.000000 6.555898
716.000000 7.635029
717.000000 2.186032
718.000000 10.819460
719.000000 7.541732
720.000000 6.526417
721.000000 8.686426
722.000000 6.485474
723.000000 13.071790
724.000000 4.352386
725.000000 2.167786
726.000000 7.591720
727.000000 6.527008
728.000000 4.315265
729.000000 4.334674
730.000000 8.629553
731.000000 15.132665
732.000000 5.418145
733.000000 7.585651
734.000000 5.392373
735.000000 9.718164
736.000000 8.716421
737.000000 9.782534
738.000000 8.722831
739.000000 5.417721
740.000000 6.471632
741.000000 6.557890
742.000000 10.811778
743.000000 15.160914
744.000000 9.760949
745.000000 6.472590
746.000000 5.388390
747.000000 2.176263
748.000000 3.239003
749.000000 7.554351
750.000000 9.835815
751.000000 7.553389
752.000000 6.466964
753.000000 9.684748
754.000000 8.612167
755.000000 3.240754
756.000000 8.652672
757.000000 10.853733
758.000000 10.822080
759.000000 4.346303
760.000000 6.502367
761.000000 6.499144
762.000000 7.575359
763.000000 4.342662
764.000000 7.619047
765.000000 7.617268
766.000000 4.317555
767.000000 6.499753
768.000000 7.583482
769.000000 9.752664
770.000000 9.738443
771.000000 7.581920
772.000000 10.799555
773.000000 8.619849
774.000000 11.948045
775.000000 11.924209
776.000000 4.320579
777.000000 7.550624
778.000000 6.496364
779.000000 10.831428
780.000000 10.886748
781.000000 8.626075
782.000000 10.862674
783.000000 7.492115
784.000000 5.416348
785.000000 5.385991
786.000000 12.975184
787.000000 6.454257
788.000000 6.511855
789.000000 11.858423
790.000000 5.418403
791.000000 8.677974
792.000000 6.502799
793.000000 7.598125
794.000000 8.643081
795.000000 11.884304
796.000000 10.829953
797.000000 8.645812
798.000000 10.875642
799.000000 8.648740
800.000000 11.875715
801.000000 11.824549
802.000000 11.822129
803.000000 6.463518
804.000000 9.708827
805.000000 11.957921
806.000000 16.245599
807.000000 4.294205
808.000000 14.088368
809.000000 12.927149
810.000000 15.144272
811.000000 6.497498
812.000000 9.771661
813.000000 8.707629
814.000000 12.920064
815.000000 12.963817
816.000000 4.335143
817.000000 4.345456
818.000000 7.593448
819.000000 10.863966
820.000000 7.584908
821.000000 7.578740
822.000000 11.885216
823.000000 5.385560
824.000000 11.882742
825.000000 9.713287
826.000000 5.389973
827.000000 5.380547
828.000000 8.637178
829.000000 8.679794
830.000000 11.894122
831.000000 15.251472
832.000000 7.535963
833.000000 4.307802
834.000000 9.713591
835.000000 9.653527
836.000000 10.837505
837.000000 10.703524
838.000000 8.628095
839.000000 5.415677
840.000000 14.183652
841.000000 8.652691
842.000000 11.847921
843.000000 11.917972
844.000000 12.936827
845.000000 6.442634
846.000000 6.464228
847.000000 6.454231
848.000000 8.617357
849.000000 6.485015
850.000000 6.487966
851.000000 4.306444
852.000000 8.650920
853.000000 7.551143
854.000000 8.651304
855.000000 5.407546
856.000000 7.567984
857.000000 9.652687
858.000000 5.357731
859.000000 6.514092
860.000000 5.387695
861.000000 14.036797
862.000000 6.481394
863.000000 15.143643
864.000000 6.471041
865.000000 15.216749
866.000000 10.782571
867.000000 6.458426
868.000000 10.871793
869.000000 6.478587
870.000000 8.740432
871.000000 6.508964
872.000000 8.668925
873.000000 11.916607
874.000000 9.682718
875.000000 8.671657
876.000000 9.819693
877.000000 4.346489
878.000000 5.402811
879.000000 10.809918
880.000000 12.987532
881.000000 13.015476
882.000000 6.462247
883.000000 7.573909
884.000000 4.297256
885.000000 11.887064
886.000000 6.469650
887.000000 8.626094
888.000000 15.011788
889.000000 9.754567
890.000000 8.692669
891.000000 7.594793
892.000000 6.476780
893.000000 7.531557
894.000000 12.992434
895.000000 12.938304
896.000000 3.223178
897.000000 7.574518
898.000000 9.663266
899.000000 7.559943
900.000000 8.668769
901.000000 13.962449
902.000000 11.895718
903.000000 8.601593
904.000000 11.934660
905.000000 14.043994
906.000000 7.553256
907.000000 5.372965
908.000000 10.767895
909.000000 11.903335
910.000000 10.821646
911.000000 9.739168
912.000000 5.402418
913.000000 11.908019
914.000000 8.612606
915.000000 6.506080
916.000000 7.543928
917.000000 7.548737
918.000000 8.600733
919.000000 9.721373
920.000000 10.739301
921.000000 14.034266
922.000000 17.209695
923.000000 8.621225
924.000000 10.859057
925.000000 8.622002
926.000000 10.841069
927.000000 13.967466
928.000000 5.367772
929.000000 9.725532
930.000000 7.513353
931.000000 8.648912
932.000000 11.895589
933.000000 7.590267
934.000000 7.520907
935.000000 6.437228
936.000000 7.549560
937.000000 10.756200
938.000000 9.672808
939.000000 8.587392
940.000000 16.189738
941.000000 11.833874
942.000000 16.243789
943.000000 7.512393
944.000000 8.645463
945.000000 10.749611
946.000000 6.448348
947.000000 8.578536
948.000000 7.567480
949.000000 8.632324
950.000000 8.617116
951.000000 12.974223
952.000000 6.473754
953.000000 10.746189
954.000000 8.614338
955.000000 12.944492
956.000000 12.983606
957.000000 3.246725
958.000000 6.461000
959.000000 3.272111
960.000000 11.835697
961.000000 5.416655
962.000000 8.635151
963.000000 7.582629
964.000000 9.694103
965.000000 6.481976
966.000000 12.883307
967.000000 11.802072
968.000000 12.929448
969.000000 2.154799
970.000000 8.640541
971.000000 6.478328
972.000000 6.489254
973.000000 6.470181
974.000000 12.861045
975.000000 9.694727
976.000000 10.784324
977.000000 9.674470
978.000000 6.515592
979.000000 10.759777
980.000000 7.624350
981.000000 5.383155
982.000000 7.537547
983.000000 9.642851
984.000000 9.685195
985.000000 5.373242
986.000000 13.958939
987.000000 4.298232
988.000000 10.822715
989.000000 16.147993
990.000000 5.433170
991.000000 6.440202
992.000000 6.491924
993.000000 12.932047
994.000000 7.517995
995.000000 15.168518
996.000000 7.585326
997.000000 19.424275
998.000000 15.145999
999.000000 19.322722
1000.000000 19.388978
1001.000000 17.335250
1002.000000 24.734634
1003.000000 30.271343
1004.000000 36.747214
1005.000000 47.314135
1006.000000 43.392858
1007.000000 60.754145
1008.000000 44.376699
1009.000000 45.424571
1010.000000 46.348312
1011.000000 36.529097
1012.000000 20.561704
1013.000000 43.195187
1014.000000 30.139857
1015.000000 21.604035
1016.000000 20.560796
1017.000000 30.205912
1018.000000 24.839623
1019.000000 15.174105
1020.000000 22.605373
1021.000000 15.152413
1022.000000 20.544040
1023.000000 11.884617
1024.000000 16.132947
1025.000000 11.886052
1026.000000 11.897879
1027.000000 21.406052
1028.000000 13.976285
1029.000000 11.914043
1030.000000 16.183566
1031.000000 18.290590
1032.000000 11.922572
1033.000000 13.971594
1034.000000 10.750972
1035.000000 13.953449
1036.000000 7.577832
1037.000000 11.896434
1038.000000 11.862978
1039.000000 15.001486
1040.000000 9.710813
1041.000000 15.171242
1042.000000 12.893273
1043.000000 12.897919
1044.000000 14.038157
1045.000000 7.560902
1046.000000 15.042931
1047.000000 8.652714
1048.000000 6.494456
1049.000000 6.431826
1050.000000 14.009418
1051.000000 12.968495
1052.000000 13.950432
1053.000000 7.486529
1054.000000 11.903356
1055.000000 11.820039
1056.000000 5.379132
1057.000000 21.558808
1058.000000 14.034756
1059.000000 6.437694
1060.000000 7.553447
1061.000000 10.700152
1062.000000 10.753142
1063.000000 9.728876
1064.000000 5.415936
1065.000000 10.818955
1066.000000 7.568443
1067.000000 10.777456
1068.000000 8.654394
1069.000000 15.190711
1070.000000 11.872723
1071.000000 5.402099
1072.000000 12.860683
1073.000000 7.570884
1074.000000 7.580187
1075.000000 7.536310
1076.000000 12.947926
1077.000000 8.589617
1078.000000 15.126010
1079.000000 4.307348
1080.000000 14.050272
1081.000000 16.153510
1082.000000 10.709663
1083.000000 10.755702
1084.000000 14.002704
1085.000000 7.559679
1086.000000 11.879454
1087.000000 15.146044
1088.000000 7.566391
1089.000000 12.972053
1090.000000 10.890536
1091.000000 6.496288
1092.000000 7.552354
1093.000000 7.580423
1094.000000 12.905644
1095.000000 8.605563
1096.000000 6.462499
1097.000000 11.893059
1098.000000 16.243527
1099.000000 8.646197
1100.000000 9.719543
1101.000000 7.533003
1102.000000 8.670869
1103.000000 11.936548
1104.000000 8.610476
1105.000000 5.417838
1106.000000 8.633174
1107.000000 9.703324
1108.000000 6.468221
1109.000000 10.748869
1110.000000 6.484946
1111.000000 12.986306
1112.000000 12.958051
1113.000000 4.308447
1114.000000 6.449697
1115.000000 6.487916
1116.000000 9.667053
1117.000000 5.416208
1118.000000 10.721280
1119.000000 6.487646
1120.000000 12.958746
1121.000000 7.548944
1122.000000 15.107721
1123.000000 17.173962
1124.000000 6.510396
1125.000000 5.422476
1126.000000 11.902625
1127.000000 5.408069
1128.000000 5.402115
1129.000000 9.704936
1130.000000 2.153493
1131.000000 10.819544
1132.000000 10.699022
1133.000000 11.900948
1134.000000 9.688236
1135.000000 14.063723
1136.000000 15.074900
1137.000000 5.415916
1138.000000 8.623931
1139.000000 11.880947
1140.000000 10.874536
1141.000000 5.425940
1142.000000 6.488371
1143.000000 7.597318
1144.000000 11.953273
1145.000000 9.697726
1146.000000 7.592739
1147.000000 9.698659
1148.000000 5.400680
1149.000000 9.695296
1150.000000 6.521351
1151.000000 6.506024
1152.000000 11.807317
1153.000000 12.987192
1154.000000 7.509871
1155.000000 16.231088
1156.000000 6.482000
1157.000000 6.493808
1158.000000 7.548139
1159.000000 8.591093
1160.000000 6.498634
1161.000000 12.961046
1162.000000 7.578521
1163.000000 5.400450
1164.000000 12.919799
1165.000000 5.410850
1166.000000 7.595852
1167.000000 12.971368
1168.000000 10.894486
1169.000000 15.168428
1170.000000 9.704245
1171.000000 14.125148
1172.000000 14.022604
1173.000000 8.610291
1174.000000 6.484244
1175.000000 7.582112
1176.000000 6.472448
1177.000000 12.967247
1178.000000 6.435216
1179.000000 7.570620
1180.000000 7.561629
1181.000000 10.783237
1182.000000 14.007511
1183.000000 5.414324
1184.000000 12.873001
1185.000000 6.477706
1186.000000 9.789427
1187.000000 15.102490
1188.000000 3.224414
1189.000000 11.923636
1190.000000 10.808590
1191.000000 16.209672
1192.000000 12.886952
1193.000000 6.470974
1194.000000 6.471644
1195.000000 8.632731
1196.000000 9.793630
1197.000000 7.572361
1198.000000 6.484952
1199.000000 3.231386
1200.000000 9.761388
1201.000000 8.655947
1202.000000 3.228136
1203.000000 11.868296
1204.000000 9.774465
1205.000000 7.653171
1206.000000 8.680757
1207.000000 9.699158
1208.000000 10.776728
1209.000000 6.510126
1210.000000 4.353770
1211.000000 9.675353
1212.000000 13.976055
1213.000000 3.242535
1214.000000 8.685593
1215.000000 9.695562
1216.000000 8.600595
1217.000000 14.027192
1218.000000 14.098196
1219.000000 8.671934
1220.000000 6.481397
1221.000000 8.612250
1222.000000 6.483922
1223.000000 11.848863
1224.000000 6.507842
1225.000000 13.977188
1226.000000 6.547693
1227.000000 13.003474
1228.000000 7.558071
1229.000000 5.396331
1230.000000 8.622654
1231.000000 11.898436
1232.000000 4.346683
1233.000000 15.109864
1234.000000 11.962581
1235.000000 4.318895
1236.000000 6.517271
1237.000000 8.657606
1238.000000 9.767779
1239.000000 8.667370
1240.000000 7.597700
1241.000000 7.536381
1242.000000 8.761601
1243.000000 15.188258
1244.000000 10.825951
1245.000000 10.839918
1246.000000 11.912322
1247.000000 8.695654
1248.000000 15.115895
1249.000000 9.709071
1250.000000 6.479938
1251.000000 8.712515
1252.000000 13.045555
1253.000000 4.328719
1254.000000 7.601954
1255.000000 14.102693
1256.000000 6.503919
1257.000000 5.428520
1258.000000 7.555315
1259.000000 5.456093
1260.000000 12.944906
1261.000000 14.039907
1262.000000 6.526702
1263.000000 6.541665
1264.000000 10.788223
1265.000000 6.461433
1266.000000 15.189603
1267.000000 4.358042
1268.000000 14.033123
1269.000000 6.493331
1270.000000 16.187671
1271.000000 8.724039
1272.000000 6.494433
1273.000000 17.476949
1274.000000 10.777552
1275.000000 13.996432
1276.000000 12.018025
1277.000000 11.917656
1278.000000 6.520462
1279.000000 10.796569
1280.000000 9.766433
1281.000000 15.195916
1282.000000 8.686421
1283.000000 5.451875
1284.000000 8.683372
1285.000000 5.434138
1286.000000 9.861780
1287.000000 8.728814
1288.000000 4.321173
1289.000000 6.516249
1290.000000 6.533780
1291.000000 13.103522
1292.000000 14.226190
1293.000000 13.024451
1294.000000 9.714620
1295.000000 8.635542
1296.000000 15.246239
1297.000000 12.975674
1298.000000 12.008643
1299.000000 10.827128
