# Left column = Time after Trigger in seconds & Right column = # Counts / Exposure = Flux per cm² s
700.000000 10.803589
701.000000 4.292030
702.000000 6.468432
703.000000 7.591570
704.000000 6.511911
705.000000 4.328087
706.000000 10.745327
707.000000 10.833157
708.000000 13.000917
709.000000 2.165542
710.000000 6.519035
711.000000 6.482870
712.000000 4.333860
713.000000 6.506969
714.000000 7.571612
715.000000 8.652201
716.000000 7.530842
717.000000 5.426409
718.000000 7.555170
719.000000 7.542146
720.000000 12.888051
721.000000 6.470622
722.000000 3.231604
723.000000 7.514710
724.000000 7.516679
725.000000 8.562126
726.000000 4.354395
727.000000 8.668900
728.000000 5.393291
729.000000 7.569143
730.000000 4.326617
731.000000 7.555598
732.000000 6.461435
733.000000 5.398677
734.000000 4.312039
735.000000 6.479644
736.000000 8.655403
737.000000 15.070191
738.000000 6.492132
739.000000 2.166087
740.000000 5.380481
741.000000 5.440418
742.000000 7.549997
743.000000 10.854512
744.000000 6.483921
745.000000 3.253254
746.000000 14.012699
747.000000 4.322407
748.000000 11.861969
749.000000 5.386961
750.000000 10.821369
751.000000 5.434235
752.000000 7.603172
753.000000 4.314780
754.000000 5.344213
755.000000 7.537704
756.000000 5.392251
757.000000 7.547822
758.000000 6.484326
759.000000 6.474232
760.000000 5.396041
761.000000 8.761115
762.000000 7.581508
763.000000 5.414561
764.000000 3.235624
765.000000 2.160743
766.000000 11.846487
767.000000 5.401683
768.000000 4.350697
769.000000 6.442581
770.000000 5.402832
771.000000 2.175483
772.000000 2.165079
773.000000 7.555061
774.000000 6.452452
775.000000 5.348199
776.000000 5.489033
777.000000 3.242519
778.000000 7.560657
779.000000 8.652821
780.000000 5.415107
781.000000 4.302284
782.000000 5.416202
783.000000 6.506460
784.000000 3.241027
785.000000 6.529123
786.000000 3.232971
787.000000 7.598520
788.000000 5.377125
789.000000 3.255164
790.000000 4.334075
791.000000 3.242311
792.000000 5.390176
793.000000 6.475345
794.000000 4.288463
795.000000 3.255666
796.000000 2.157464
797.000000 8.634234
798.000000 8.616227
799.000000 5.418534
800.000000 5.390679
801.000000 5.398240
802.000000 7.532507
803.000000 8.626101
804.000000 4.311272
805.000000 4.308526
806.000000 3.238375
807.000000 3.238573
808.000000 3.248738
809.000000 7.541590
810.000000 5.416700
811.000000 4.316380
812.000000 1.081270
813.000000 4.330976
814.000000 4.330951
815.000000 10.839886
816.000000 1.076091
817.000000 4.315111
818.000000 5.412996
819.000000 4.337072
820.000000 8.640202
821.000000 3.218062
822.000000 4.316398
823.000000 4.294179
824.000000 3.220874
825.000000 6.480808
826.000000 1.084933
827.000000 4.334889
828.000000 3.248322
829.000000 2.159250
830.000000 3.239735
831.000000 9.701556
832.000000 5.415132
833.000000 9.665255
834.000000 3.256037
835.000000 4.320275
836.000000 6.506303
837.000000 7.496499
838.000000 4.300362
839.000000 5.386417
840.000000 8.716843
841.000000 3.249523
842.000000 5.434860
843.000000 4.308564
844.000000 5.414749
845.000000 3.231684
846.000000 2.157644
847.000000 10.799655
848.000000 3.250748
849.000000 6.529594
850.000000 6.471114
851.000000 3.246094
852.000000 4.325294
853.000000 2.161049
854.000000 2.153070
855.000000 7.587078
856.000000 7.562771
857.000000 3.224371
858.000000 5.409564
859.000000 5.404173
860.000000 5.444921
861.000000 4.341251
862.000000 3.240300
863.000000 6.457455
864.000000 6.514209
865.000000 6.500604
866.000000 3.238282
867.000000 6.516785
868.000000 5.390826
869.000000 5.402915
870.000000 5.406667
871.000000 2.155771
872.000000 4.349867
873.000000 2.155251
874.000000 7.538751
875.000000 1.080673
876.000000 2.172557
877.000000 6.490675
878.000000 3.251502
879.000000 2.167809
880.000000 2.160072
881.000000 6.466284
882.000000 4.334084
883.000000 3.219408
884.000000 5.410360
885.000000 8.632973
886.000000 7.593393
887.000000 4.341713
888.000000 5.391805
889.000000 5.379188
890.000000 4.320885
891.000000 6.503278
892.000000 4.305221
893.000000 2.151925
894.000000 7.537390
895.000000 2.162215
896.000000 2.168056
897.000000 3.254299
898.000000 5.386887
899.000000 6.452260
900.000000 6.453727
901.000000 2.169753
902.000000 2.175458
903.000000 4.308901
904.000000 6.481634
905.000000 5.422893
906.000000 6.501756
907.000000 5.400783
908.000000 7.579180
909.000000 4.345688
910.000000 4.315317
911.000000 8.609916
912.000000 3.262001
913.000000 3.240736
914.000000 4.320083
915.000000 4.339477
916.000000 9.717780
917.000000 6.459745
918.000000 7.564720
919.000000 4.330631
920.000000 5.411169
921.000000 7.569120
922.000000 4.315759
923.000000 6.503049
924.000000 2.151516
925.000000 1.079609
926.000000 3.249201
927.000000 3.243599
928.000000 2.153496
929.000000 4.353626
930.000000 5.382990
931.000000 6.447353
932.000000 2.152117
933.000000 3.241714
934.000000 4.335901
935.000000 3.242518
936.000000 3.253251
937.000000 5.338504
938.000000 3.214084
939.000000 6.454670
940.000000 3.221398
941.000000 3.265769
942.000000 2.163201
943.000000 6.480800
944.000000 6.466266
945.000000 4.324794
946.000000 3.260280
947.000000 2.151981
948.000000 1.080476
949.000000 4.308368
950.000000 9.679873
951.000000 3.257545
952.000000 1.088157
953.000000 4.314941
954.000000 4.316550
955.000000 6.502109
956.000000 5.404857
957.000000 2.157534
958.000000 2.160343
959.000000 3.260830
960.000000 4.316603
961.000000 5.387403
962.000000 6.512915
963.000000 2.154377
964.000000 4.314113
965.000000 3.255863
966.000000 6.502510
967.000000 1.091122
968.000000 6.469705
969.000000 5.370312
970.000000 3.242910
971.000000 4.334002
972.000000 1.082779
973.000000 0.000000
974.000000 0.000000
975.000000 0.000000
976.000000 3.250333
977.000000 3.254218
978.000000 2.147858
979.000000 0.000000
980.000000 3.250888
981.000000 1.080471
982.000000 2.144955
983.000000 2.167221
984.000000 3.240822
985.000000 4.310145
986.000000 3.231717
987.000000 3.224122
988.000000 2.166179
989.000000 4.326072
990.000000 1.079769
991.000000 5.401559
992.000000 2.179438
993.000000 6.464719
994.000000 2.167620
995.000000 3.239168
996.000000 3.225440
997.000000 4.310191
998.000000 0.000000
999.000000 0.000000
1000.000000 5.384976
1001.000000 85.302389
1002.000000 42.239374
1003.000000 15.132592
1004.000000 5.420109
1005.000000 4.312189
1006.000000 4.321309
1007.000000 8.697579
1008.000000 8.663096
1009.000000 3.244269
1010.000000 5.410586
1011.000000 5.405486
1012.000000 3.271644
1013.000000 2.171345
1014.000000 5.396799
1015.000000 4.346809
1016.000000 2.156677
1017.000000 2.163451
1018.000000 5.421381
1019.000000 1.081047
1020.000000 0.000000
1021.000000 3.228086
1022.000000 1.087520
1023.000000 3.242429
1024.000000 1.088862
1025.000000 5.404361
1026.000000 7.523559
1027.000000 7.601888
1028.000000 0.000000
1029.000000 5.414212
1030.000000 3.221213
1031.000000 1.079191
1032.000000 2.169002
1033.000000 3.249846
1034.000000 1.081770
1035.000000 6.475523
1036.000000 3.234363
1037.000000 2.174031
1038.000000 3.238315
1039.000000 2.181060
1040.000000 2.170609
1041.000000 2.154838
1042.000000 2.153147
1043.000000 3.236104
1044.000000 4.316809
1045.000000 4.347987
1046.000000 3.254523
1047.000000 1.075272
1048.000000 0.000000
1049.000000 1.087342
1050.000000 4.344223
1051.000000 0.000000
1052.000000 0.000000
1053.000000 2.162372
1054.000000 4.291343
1055.000000 3.235713
1056.000000 7.571193
1057.000000 3.241430
1058.000000 5.366479
1059.000000 1.081854
1060.000000 3.239778
1061.000000 4.316508
1062.000000 2.157577
1063.000000 3.229415
1064.000000 4.331055
1065.000000 1.073654
1066.000000 2.146848
1067.000000 2.169921
1068.000000 5.433737
1069.000000 10.885266
1070.000000 2.164947
1071.000000 4.336870
1072.000000 2.168539
1073.000000 4.312162
1074.000000 6.461903
1075.000000 6.479231
1076.000000 6.480994
1077.000000 5.407600
1078.000000 5.436813
1079.000000 4.321238
1080.000000 3.235188
1081.000000 4.331351
1082.000000 4.345754
1083.000000 5.452977
1084.000000 6.477834
1085.000000 3.225612
1086.000000 7.557364
1087.000000 4.306129
1088.000000 2.161001
1089.000000 5.394327
1090.000000 7.595069
1091.000000 5.409341
1092.000000 6.471748
1093.000000 5.432226
1094.000000 4.299019
1095.000000 5.423915
1096.000000 8.577635
1097.000000 2.169523
1098.000000 6.490412
1099.000000 7.593756
1100.000000 6.470757
1101.000000 5.424672
1102.000000 3.238173
1103.000000 9.730038
1104.000000 5.432716
1105.000000 7.613134
1106.000000 5.401972
1107.000000 2.154132
1108.000000 2.165976
1109.000000 3.252650
1110.000000 7.551216
1111.000000 9.740344
1112.000000 11.894260
1113.000000 8.620411
1114.000000 5.442160
1115.000000 8.648693
1116.000000 7.503354
1117.000000 6.458993
1118.000000 6.482905
1119.000000 5.416300
1120.000000 6.454002
1121.000000 2.161420
1122.000000 3.245586
1123.000000 6.455832
1124.000000 4.325754
1125.000000 5.398768
1126.000000 9.689788
1127.000000 4.349841
1128.000000 7.597211
1129.000000 6.480668
1130.000000 5.389594
1131.000000 6.475815
1132.000000 4.341067
1133.000000 12.995907
1134.000000 3.236337
1135.000000 4.336677
1136.000000 5.409777
1137.000000 5.439954
1138.000000 2.156293
1139.000000 5.439726
1140.000000 2.157185
1141.000000 2.180939
1142.000000 9.692184
1143.000000 8.634604
1144.000000 4.306071
1145.000000 5.381279
1146.000000 6.499659
1147.000000 7.549662
1148.000000 6.522472
1149.000000 3.240020
1150.000000 8.610533
1151.000000 6.443398
1152.000000 4.321978
1153.000000 4.313655
1154.000000 3.248130
1155.000000 11.825428
1156.000000 8.632739
1157.000000 4.308431
1158.000000 8.658461
1159.000000 3.239408
1160.000000 4.319480
1161.000000 2.167079
1162.000000 8.706753
1163.000000 6.486734
1164.000000 7.567399
1165.000000 8.661139
1166.000000 5.449081
1167.000000 4.297779
1168.000000 5.421286
1169.000000 3.255256
1170.000000 11.901683
1171.000000 10.893836
1172.000000 9.678546
1173.000000 4.316866
1174.000000 4.335865
1175.000000 6.459407
1176.000000 8.622895
1177.000000 5.427344
1178.000000 15.306420
1179.000000 3.251461
1180.000000 10.825057
1181.000000 16.288334
1182.000000 7.538861
1183.000000 6.477170
1184.000000 13.020837
1185.000000 5.390182
1186.000000 4.329982
1187.000000 7.549137
1188.000000 7.553110
1189.000000 4.306329
1190.000000 5.379053
1191.000000 7.571087
1192.000000 9.747206
1193.000000 4.324505
1194.000000 8.652261
1195.000000 6.495796
1196.000000 5.406163
1197.000000 3.253290
1198.000000 6.503899
1199.000000 8.640965
1200.000000 6.554485
1201.000000 3.243794
1202.000000 4.342523
1203.000000 5.401548
1204.000000 9.772578
1205.000000 9.749224
1206.000000 8.603457
1207.000000 5.390853
1208.000000 5.440089
1209.000000 9.717505
1210.000000 5.393433
1211.000000 6.496159
1212.000000 10.846333
1213.000000 12.001076
1214.000000 2.171780
1215.000000 6.490611
1216.000000 5.407118
1217.000000 3.255936
1218.000000 7.587086
1219.000000 6.496965
1220.000000 3.250846
1221.000000 6.521552
1222.000000 3.262566
1223.000000 5.413525
1224.000000 6.500090
1225.000000 5.437371
1226.000000 4.334622
1227.000000 0.000000
1228.000000 0.000000
1229.000000 4.330203
1230.000000 9.789262
1231.000000 3.242755
1232.000000 5.403950
1233.000000 5.395051
1234.000000 7.591018
1235.000000 4.334643
1236.000000 11.906894
1237.000000 2.173348
1238.000000 6.501226
1239.000000 4.338607
1240.000000 3.243563
1241.000000 4.371056
1242.000000 8.669616
1243.000000 4.339360
1244.000000 3.264988
1245.000000 6.538283
1246.000000 2.179021
1247.000000 7.582634
1248.000000 1.091028
1249.000000 4.355904
1250.000000 4.361104
1251.000000 4.351709
1252.000000 4.327688
1253.000000 4.338424
1254.000000 6.514736
1255.000000 3.281886
1256.000000 5.386809
1257.000000 4.303354
1258.000000 2.173589
1259.000000 4.345224
1260.000000 9.740018
1261.000000 5.451377
1262.000000 3.263933
1263.000000 5.438991
1264.000000 5.471514
1265.000000 3.269177
1266.000000 4.363408
1267.000000 4.347228
1268.000000 1.088759
1269.000000 8.728719
1270.000000 7.627793
1271.000000 0.000000
1272.000000 6.490120
1273.000000 4.345187
1274.000000 10.825655
1275.000000 3.266330
1276.000000 1.095609
1277.000000 4.356823
1278.000000 4.366035
1279.000000 4.330008
1280.000000 2.179481
1281.000000 5.417474
1282.000000 3.277569
1283.000000 6.474779
1284.000000 2.190054
1285.000000 4.362550
1286.000000 5.454541
1287.000000 3.281946
1288.000000 2.172633
1289.000000 4.357423
1290.000000 2.177951
1291.000000 7.618475
1292.000000 4.351660
1293.000000 1.085979
1294.000000 1.090649
1295.000000 1.087681
1296.000000 1.086403
1297.000000 4.341534
1298.000000 3.275028
1299.000000 3.284546
