# Left column = Time after Trigger in seconds & Right column = # Counts / Exposure = Flux per cm² s
700.000000 8.619578
701.000000 8.629523
702.000000 6.574084
703.000000 9.751977
704.000000 8.681377
705.000000 10.888081
706.000000 11.980414
707.000000 9.779012
708.000000 9.728340
709.000000 8.662390
710.000000 8.655935
711.000000 9.762923
712.000000 9.727101
713.000000 10.839801
714.000000 8.694919
715.000000 8.736351
716.000000 7.607446
717.000000 5.460801
718.000000 6.495422
719.000000 6.539484
720.000000 10.859301
721.000000 9.741217
722.000000 9.737126
723.000000 7.586302
724.000000 17.496541
725.000000 9.770707
726.000000 13.072722
727.000000 13.021185
728.000000 4.359967
729.000000 4.338605
730.000000 8.684489
731.000000 9.754641
732.000000 9.757585
733.000000 5.456025
734.000000 7.559332
735.000000 11.931504
736.000000 9.808032
737.000000 8.675958
738.000000 11.942107
739.000000 3.255419
740.000000 7.586073
741.000000 7.565343
742.000000 7.603620
743.000000 7.627633
744.000000 5.421558
745.000000 11.937824
746.000000 10.895162
747.000000 7.594749
748.000000 11.941817
749.000000 9.734839
750.000000 9.757515
751.000000 15.091896
752.000000 8.650839
753.000000 14.148047
754.000000 10.841876
755.000000 7.585398
756.000000 8.747646
757.000000 10.880079
758.000000 9.805545
759.000000 3.258418
760.000000 7.570890
761.000000 11.927939
762.000000 16.177983
763.000000 9.720897
764.000000 11.940398
765.000000 10.894624
766.000000 5.443597
767.000000 12.016905
768.000000 11.986945
769.000000 10.839736
770.000000 12.065303
771.000000 11.967809
772.000000 9.802998
773.000000 11.948749
774.000000 11.980745
775.000000 9.865191
776.000000 11.975682
777.000000 9.801360
778.000000 5.489525
779.000000 10.883063
780.000000 12.979291
781.000000 8.744509
782.000000 11.909955
783.000000 12.006673
784.000000 10.901722
785.000000 15.064826
786.000000 4.339826
787.000000 11.991367
788.000000 9.814390
789.000000 6.523549
790.000000 11.962367
791.000000 9.763871
792.000000 15.242424
793.000000 10.851582
794.000000 11.982577
795.000000 9.820183
796.000000 9.771712
797.000000 8.658378
798.000000 3.294549
799.000000 7.582127
800.000000 9.722070
801.000000 10.864426
802.000000 17.303983
803.000000 12.966031
804.000000 6.503042
805.000000 9.804191
806.000000 11.947465
807.000000 8.720632
808.000000 9.817265
809.000000 8.702924
810.000000 16.322548
811.000000 7.611437
812.000000 9.717832
813.000000 6.505872
814.000000 9.804973
815.000000 13.042268
816.000000 10.829889
817.000000 9.747433
818.000000 10.823748
819.000000 9.833793
820.000000 14.123766
821.000000 10.854554
822.000000 11.978203
823.000000 11.941782
824.000000 5.418143
825.000000 12.001205
826.000000 13.037266
827.000000 8.705697
828.000000 13.013447
829.000000 7.543531
830.000000 11.909399
831.000000 7.615485
832.000000 5.411145
833.000000 9.744699
834.000000 16.355162
835.000000 14.139564
836.000000 8.670576
837.000000 10.797537
838.000000 6.444272
839.000000 13.062440
840.000000 16.382488
841.000000 16.225423
842.000000 11.941761
843.000000 10.863069
844.000000 7.659745
845.000000 13.002840
846.000000 10.828294
847.000000 9.821828
848.000000 5.399407
849.000000 14.096285
850.000000 5.454957
851.000000 12.000815
852.000000 17.335950
853.000000 7.609929
854.000000 4.324078
855.000000 5.418705
856.000000 9.799797
857.000000 14.159210
858.000000 14.126581
859.000000 9.789713
860.000000 10.894078
861.000000 7.584164
862.000000 9.777765
863.000000 8.695210
864.000000 7.620705
865.000000 9.786557
866.000000 11.975265
867.000000 9.771312
868.000000 8.713729
869.000000 13.035659
870.000000 8.664651
871.000000 8.721383
872.000000 9.773533
873.000000 8.686691
874.000000 16.282173
875.000000 15.179175
876.000000 10.866063
877.000000 6.526138
878.000000 10.901298
879.000000 10.902878
880.000000 12.010455
881.000000 10.920645
882.000000 16.278159
883.000000 7.578211
884.000000 6.553734
885.000000 13.025660
886.000000 8.680872
887.000000 8.739996
888.000000 11.969665
889.000000 13.093953
890.000000 6.517441
891.000000 10.812580
892.000000 11.945355
893.000000 7.620240
894.000000 5.459466
895.000000 9.762678
896.000000 15.223640
897.000000 6.547799
898.000000 8.707178
899.000000 11.923265
900.000000 11.983692
901.000000 13.061710
902.000000 6.509547
903.000000 6.500043
904.000000 10.880554
905.000000 11.932564
906.000000 7.638276
907.000000 7.565822
908.000000 12.971338
909.000000 15.214581
910.000000 10.857753
911.000000 6.526082
912.000000 2.176618
913.000000 3.255328
914.000000 11.893553
915.000000 11.910987
916.000000 9.777994
917.000000 13.013716
918.000000 14.097377
919.000000 7.606531
920.000000 14.193126
921.000000 5.434972
922.000000 14.204952
923.000000 12.938977
924.000000 10.918675
925.000000 17.384535
926.000000 8.690675
927.000000 8.705439
928.000000 7.596548
929.000000 11.933454
930.000000 19.642444
931.000000 11.914383
932.000000 5.388834
933.000000 6.512211
934.000000 9.762222
935.000000 14.088651
936.000000 9.802504
937.000000 9.749097
938.000000 10.888750
939.000000 5.415075
940.000000 7.651964
941.000000 8.681849
942.000000 14.124671
943.000000 10.870953
944.000000 10.848295
945.000000 10.880424
946.000000 5.429985
947.000000 8.675469
948.000000 11.952382
949.000000 10.784663
950.000000 15.263996
951.000000 11.947980
952.000000 14.109236
953.000000 9.772324
954.000000 6.496079
955.000000 14.049038
956.000000 8.702239
957.000000 8.736209
958.000000 11.880917
959.000000 7.582512
960.000000 6.522637
961.000000 9.759320
962.000000 14.031476
963.000000 10.757893
964.000000 9.752761
965.000000 7.588899
966.000000 15.214770
967.000000 8.745153
968.000000 5.418047
969.000000 9.803458
970.000000 8.672141
971.000000 6.514770
972.000000 12.926797
973.000000 11.944393
974.000000 10.798574
975.000000 8.652871
976.000000 8.660395
977.000000 7.568749
978.000000 10.849738
979.000000 11.976899
980.000000 7.586375
981.000000 5.416936
982.000000 8.683751
983.000000 15.146842
984.000000 14.115062
985.000000 7.554110
986.000000 8.670041
987.000000 9.773614
988.000000 4.333262
989.000000 7.561161
990.000000 9.781399
991.000000 7.587451
992.000000 9.743275
993.000000 13.032313
994.000000 10.866202
995.000000 16.327389
996.000000 5.421239
997.000000 7.577114
998.000000 11.889635
999.000000 8.733864
1000.000000 10.813136
1001.000000 21.857540
1002.000000 30.401499
1003.000000 67.298781
1004.000000 48.051875
1005.000000 123.599599
1006.000000 82.208772
1007.000000 48.713509
1008.000000 42.457403
1009.000000 21.730377
1010.000000 19.444558
1011.000000 13.153137
1012.000000 11.951302
1013.000000 13.039953
1014.000000 13.986007
1015.000000 18.379660
1016.000000 11.901536
1017.000000 19.557330
1018.000000 17.391215
1019.000000 10.816708
1020.000000 17.322716
1021.000000 10.897752
1022.000000 5.403627
1023.000000 7.568029
1024.000000 6.526001
1025.000000 13.022125
1026.000000 11.954803
1027.000000 13.998974
1028.000000 15.145564
1029.000000 7.563388
1030.000000 11.906655
1031.000000 8.707831
1032.000000 14.104853
1033.000000 11.901530
1034.000000 13.102299
1035.000000 11.972301
1036.000000 15.071468
1037.000000 3.235014
1038.000000 9.821934
1039.000000 15.259679
1040.000000 3.268907
1041.000000 6.478789
1042.000000 14.150357
1043.000000 15.322288
1044.000000 14.113270
1045.000000 9.759529
1046.000000 9.822175
1047.000000 10.797107
1048.000000 14.102127
1049.000000 13.119017
1050.000000 7.605390
1051.000000 13.017598
1052.000000 14.089595
1053.000000 12.988192
1054.000000 14.169266
1055.000000 10.878081
1056.000000 13.106418
1057.000000 9.741305
1058.000000 14.117461
1059.000000 7.595764
1060.000000 10.859225
1061.000000 11.943235
1062.000000 9.863633
1063.000000 11.989482
1064.000000 9.704606
1065.000000 8.683099
1066.000000 17.524970
1067.000000 5.425295
1068.000000 10.855528
1069.000000 16.260316
1070.000000 9.699328
1071.000000 9.775320
1072.000000 10.846215
1073.000000 3.257491
1074.000000 6.557723
1075.000000 13.043777
1076.000000 6.478896
1077.000000 11.958207
1078.000000 14.129606
1079.000000 15.234524
1080.000000 6.545119
1081.000000 14.093895
1082.000000 10.819765
1083.000000 9.809831
1084.000000 10.814906
1085.000000 10.901952
1086.000000 9.745699
1087.000000 12.987426
1088.000000 10.831291
1089.000000 12.007350
1090.000000 10.935012
1091.000000 8.727115
1092.000000 7.587683
1093.000000 9.825170
1094.000000 13.075514
1095.000000 7.626217
1096.000000 10.886490
1097.000000 14.129921
1098.000000 13.070168
1099.000000 10.891861
1100.000000 7.602493
1101.000000 8.690147
1102.000000 11.973698
1103.000000 13.027702
1104.000000 15.141817
1105.000000 19.600667
1106.000000 9.725464
1107.000000 11.946382
1108.000000 10.989563
1109.000000 8.722524
1110.000000 14.079998
1111.000000 10.839624
1112.000000 8.698970
1113.000000 9.783138
1114.000000 8.747927
1115.000000 9.771181
1116.000000 9.798493
1117.000000 10.872224
1118.000000 7.614291
1119.000000 9.799347
1120.000000 5.443173
1121.000000 11.887923
1122.000000 8.684414
1123.000000 9.809966
1124.000000 13.070186
1125.000000 10.862343
1126.000000 8.728978
1127.000000 7.582196
1128.000000 9.823050
1129.000000 17.400550
1130.000000 8.697952
1131.000000 9.770029
1132.000000 9.813508
1133.000000 7.614237
1134.000000 15.167581
1135.000000 7.598999
1136.000000 10.872797
1137.000000 4.370951
1138.000000 5.482438
1139.000000 6.552600
1140.000000 7.571992
1141.000000 15.199244
1142.000000 7.635921
1143.000000 11.937494
1144.000000 9.732428
1145.000000 9.809036
1146.000000 9.763410
1147.000000 8.723023
1148.000000 8.721959
1149.000000 16.272183
1150.000000 9.862521
1151.000000 5.468985
1152.000000 5.419136
1153.000000 6.531550
1154.000000 9.795742
1155.000000 13.030210
1156.000000 15.242493
1157.000000 11.946815
1158.000000 7.575702
1159.000000 5.418920
1160.000000 6.523704
1161.000000 8.794397
1162.000000 6.537982
1163.000000 10.924711
1164.000000 16.335000
1165.000000 11.994426
1166.000000 8.693098
1167.000000 19.643255
1168.000000 11.946283
1169.000000 6.537214
1170.000000 10.923681
1171.000000 12.013515
1172.000000 10.844985
1173.000000 14.210398
1174.000000 8.734327
1175.000000 3.271796
1176.000000 10.871036
1177.000000 9.830389
1178.000000 10.867147
1179.000000 10.830797
1180.000000 11.910580
1181.000000 12.004468
1182.000000 14.080543
1183.000000 4.374702
1184.000000 12.997550
1185.000000 8.668599
1186.000000 8.642820
1187.000000 6.536682
1188.000000 5.431337
1189.000000 11.983988
1190.000000 13.096280
1191.000000 11.876107
1192.000000 8.644754
1193.000000 7.534294
1194.000000 7.608565
1195.000000 8.693339
1196.000000 5.449290
1197.000000 8.763732
1198.000000 9.812536
1199.000000 13.036503
1200.000000 17.351337
1201.000000 14.144613
1202.000000 9.810093
1203.000000 16.259434
1204.000000 10.941601
1205.000000 5.418164
1206.000000 5.421815
1207.000000 8.704942
1208.000000 15.181117
1209.000000 4.365928
1210.000000 16.398861
1211.000000 15.292765
1212.000000 6.511302
1213.000000 13.084938
1214.000000 14.090923
1215.000000 11.922234
1216.000000 9.736088
1217.000000 5.423729
1218.000000 8.709226
1219.000000 11.952965
1220.000000 12.038769
1221.000000 14.190201
1222.000000 8.718489
1223.000000 1.085811
1224.000000 14.154772
1225.000000 3.253985
1226.000000 12.054266
1227.000000 11.939893
1228.000000 7.560483
1229.000000 6.530308
1230.000000 15.173178
1231.000000 9.766461
1232.000000 11.941320
1233.000000 12.936287
1234.000000 15.245651
1235.000000 15.298415
1236.000000 10.864252
1237.000000 7.613372
1238.000000 8.632257
1239.000000 15.172460
1240.000000 14.231795
1241.000000 8.712674
1242.000000 13.002416
1243.000000 13.031779
1244.000000 10.882527
1245.000000 9.833428
1246.000000 13.154082
1247.000000 7.607876
1248.000000 7.559547
1249.000000 14.168647
1250.000000 10.770386
1251.000000 9.751888
1252.000000 6.507995
1253.000000 9.768904
1254.000000 11.880624
1255.000000 14.136000
1256.000000 15.195638
1257.000000 13.028168
1258.000000 10.925281
1259.000000 13.073048
1260.000000 5.429348
1261.000000 14.123244
1262.000000 10.914173
1263.000000 6.536292
1264.000000 11.982892
1265.000000 13.041053
1266.000000 15.284748
1267.000000 14.137124
1268.000000 13.085506
1269.000000 10.862136
1270.000000 9.796211
1271.000000 13.072471
1272.000000 9.833280
1273.000000 7.641355
1274.000000 18.554007
1275.000000 14.100811
1276.000000 14.034974
1277.000000 12.979892
1278.000000 11.972109
1279.000000 10.898664
1280.000000 11.892982
1281.000000 8.668288
1282.000000 7.542716
1283.000000 7.625886
1284.000000 10.845637
1285.000000 11.977110
1286.000000 16.298709
1287.000000 13.075524
1288.000000 8.738324
1289.000000 8.680580
1290.000000 9.799163
1291.000000 17.528568
1292.000000 6.523946
1293.000000 12.023917
1294.000000 8.733019
1295.000000 8.710443
1296.000000 3.268710
1297.000000 13.050101
1298.000000 7.602727
1299.000000 5.411518
