# Left column = Time after Trigger in seconds & Right column = # Counts / Exposure = Flux per cm² s
700.000000 40.324981
701.000000 44.516166
702.000000 43.618127
703.000000 52.365749
704.000000 49.897134
705.000000 50.659122
706.000000 54.567741
707.000000 50.245136
708.000000 58.342137
709.000000 63.912414
710.000000 43.781961
711.000000 60.285569
712.000000 76.838110
713.000000 46.924132
714.000000 47.253976
715.000000 48.259260
716.000000 49.415064
717.000000 45.340289
718.000000 65.260274
719.000000 47.392462
720.000000 51.338365
721.000000 49.225591
722.000000 66.465219
723.000000 56.197733
724.000000 46.898447
725.000000 52.634354
726.000000 63.071364
727.000000 71.372477
728.000000 56.374141
729.000000 57.477285
730.000000 45.273085
731.000000 57.378208
732.000000 45.017390
733.000000 63.474020
734.000000 62.285002
735.000000 56.751870
736.000000 48.116640
737.000000 67.508546
738.000000 42.803515
739.000000 50.758537
740.000000 48.210069
741.000000 46.197426
742.000000 64.267427
743.000000 51.761495
744.000000 39.273266
745.000000 52.826322
746.000000 67.799109
747.000000 46.325616
748.000000 49.831610
749.000000 58.493406
750.000000 58.711585
751.000000 55.226034
752.000000 70.863666
753.000000 60.551880
754.000000 48.221019
755.000000 54.330667
756.000000 52.894085
757.000000 47.478985
758.000000 65.090249
759.000000 56.578871
760.000000 51.227268
761.000000 62.976495
762.000000 46.296002
763.000000 37.281826
764.000000 66.438368
765.000000 65.661911
766.000000 47.596428
767.000000 45.279616
768.000000 50.870064
769.000000 49.411422
770.000000 72.767141
771.000000 53.199503
772.000000 51.002684
773.000000 55.760871
774.000000 61.459952
775.000000 54.370206
776.000000 54.356785
777.000000 53.387619
778.000000 57.065248
779.000000 54.164002
780.000000 59.906631
781.000000 54.426839
782.000000 51.991457
783.000000 44.391297
784.000000 62.364027
785.000000 53.253982
786.000000 52.155166
787.000000 57.288110
788.000000 40.691754
789.000000 40.987251
790.000000 55.504249
791.000000 50.284241
792.000000 60.426800
793.000000 49.173513
794.000000 53.376864
795.000000 70.572580
796.000000 67.502612
797.000000 62.711574
798.000000 64.566860
799.000000 65.243464
800.000000 57.322426
801.000000 59.348544
802.000000 54.786372
803.000000 52.389767
804.000000 49.191412
805.000000 53.842006
806.000000 62.613340
807.000000 63.731936
808.000000 48.041778
809.000000 62.316191
810.000000 63.505760
811.000000 51.366603
812.000000 61.907882
813.000000 80.063281
814.000000 66.998673
815.000000 54.615852
816.000000 63.956006
817.000000 54.897987
818.000000 48.119147
819.000000 60.723937
820.000000 48.985514
821.000000 58.704421
822.000000 60.900159
823.000000 55.997967
824.000000 57.275781
825.000000 46.658458
826.000000 57.258782
827.000000 64.634182
828.000000 43.782144
829.000000 70.794243
830.000000 52.005576
831.000000 65.796870
832.000000 53.799808
833.000000 65.351942
834.000000 54.941685
835.000000 52.335556
836.000000 52.426549
837.000000 58.392897
838.000000 52.823621
839.000000 61.141353
840.000000 61.276839
841.000000 52.759569
842.000000 59.765500
843.000000 65.914976
844.000000 59.681954
845.000000 74.454784
846.000000 66.633359
847.000000 57.049833
848.000000 70.458673
849.000000 59.687789
850.000000 53.853133
851.000000 61.138086
852.000000 59.863387
853.000000 68.044394
854.000000 67.147013
855.000000 67.539791
856.000000 61.839143
857.000000 78.413875
858.000000 51.505679
859.000000 78.029539
860.000000 60.757695
861.000000 43.630549
862.000000 62.898922
863.000000 62.187672
864.000000 49.645089
865.000000 62.101964
866.000000 50.796630
867.000000 59.893462
868.000000 61.787285
869.000000 50.721353
870.000000 71.304191
871.000000 52.810763
872.000000 56.409652
873.000000 62.680232
874.000000 70.614998
875.000000 55.585518
876.000000 66.797431
877.000000 42.555401
878.000000 53.059038
879.000000 67.063016
880.000000 78.251425
881.000000 59.029238
882.000000 70.624359
883.000000 53.970062
884.000000 64.026045
885.000000 64.644696
886.000000 62.614822
887.000000 61.788716
888.000000 69.434618
889.000000 51.018233
890.000000 52.262388
891.000000 55.540622
892.000000 87.382043
893.000000 61.135106
894.000000 57.635988
895.000000 54.816671
896.000000 51.619104
897.000000 75.034905
898.000000 51.911152
899.000000 65.557277
900.000000 83.963128
901.000000 72.761539
902.000000 67.342393
903.000000 67.145595
904.000000 59.898939
905.000000 61.287922
906.000000 54.757771
907.000000 48.522317
908.000000 62.677521
909.000000 47.113764
910.000000 64.889329
911.000000 67.483444
912.000000 49.895494
913.000000 58.927564
914.000000 65.306221
915.000000 56.659396
916.000000 61.661950
917.000000 84.612747
918.000000 62.063023
919.000000 57.221132
920.000000 73.465087
921.000000 64.826991
922.000000 61.901431
923.000000 60.219711
924.000000 54.430165
925.000000 44.393172
926.000000 61.997867
927.000000 63.848190
928.000000 70.571578
929.000000 48.605614
930.000000 93.282969
931.000000 57.146026
932.000000 68.867991
933.000000 48.639269
934.000000 60.953797
935.000000 61.646735
936.000000 78.037940
937.000000 58.265382
938.000000 52.672730
939.000000 51.080217
940.000000 58.428856
941.000000 58.499738
942.000000 63.908078
943.000000 68.634890
944.000000 49.057198
945.000000 59.060922
946.000000 52.301663
947.000000 78.037550
948.000000 65.043631
949.000000 68.831791
950.000000 65.875283
951.000000 78.379499
952.000000 59.599554
953.000000 73.393128
954.000000 51.467559
955.000000 56.473196
956.000000 70.956852
957.000000 59.694794
958.000000 85.110091
959.000000 51.675458
960.000000 58.385781
961.000000 49.050594
962.000000 81.232138
963.000000 60.629834
964.000000 51.382473
965.000000 53.595678
966.000000 65.626053
967.000000 59.751375
968.000000 61.192260
969.000000 68.271183
970.000000 56.628028
971.000000 64.760030
972.000000 61.519350
973.000000 55.120190
974.000000 70.014707
975.000000 69.984446
976.000000 79.389616
977.000000 59.423689
978.000000 52.890382
979.000000 56.495010
980.000000 65.892133
981.000000 54.936827
982.000000 68.247462
983.000000 67.220266
984.000000 66.666986
985.000000 71.656019
986.000000 66.819594
987.000000 62.227708
988.000000 76.571827
989.000000 71.611499
990.000000 83.289278
991.000000 55.054858
992.000000 72.036607
993.000000 56.443316
994.000000 58.865421
995.000000 63.795159
996.000000 61.088255
997.000000 63.333037
998.000000 62.226237
999.000000 120.630155
1000.000000 138.135812
1001.000000 83.901513
1002.000000 61.524871
1003.000000 69.421835
1004.000000 78.542924
1005.000000 143.605736
1006.000000 294.036947
1007.000000 277.532133
1008.000000 328.570519
1009.000000 393.364470
1010.000000 309.341556
1011.000000 172.638849
1012.000000 123.041092
1013.000000 147.596872
1014.000000 122.692072
1015.000000 114.837107
1016.000000 111.411031
1017.000000 111.599072
1018.000000 105.303981
1019.000000 99.599516
1020.000000 88.793220
1021.000000 108.526046
1022.000000 100.009479
1023.000000 97.923365
1024.000000 91.722356
1025.000000 93.624007
1026.000000 80.149808
1027.000000 77.519973
1028.000000 76.795872
1029.000000 78.939584
1030.000000 84.428581
1031.000000 108.114680
1032.000000 117.696748
1033.000000 85.483288
1034.000000 106.241140
1035.000000 77.783778
1036.000000 78.858713
1037.000000 87.358080
1038.000000 80.149904
1039.000000 88.704678
1040.000000 80.255278
1041.000000 76.237495
1042.000000 76.544572
1043.000000 83.689112
1044.000000 76.458753
1045.000000 69.549309
1046.000000 64.324321
1047.000000 72.119429
1048.000000 78.501131
1049.000000 79.087527
1050.000000 85.658639
1051.000000 81.452836
1052.000000 63.779009
1053.000000 93.498429
1054.000000 97.430017
1055.000000 75.534496
1056.000000 87.888486
1057.000000 79.270094
1058.000000 94.049353
1059.000000 76.267956
1060.000000 91.897704
1061.000000 55.845462
1062.000000 65.476202
1063.000000 70.157535
1064.000000 99.480350
1065.000000 89.265144
1066.000000 75.607523
1067.000000 92.539705
1068.000000 99.638408
1069.000000 67.662431
1070.000000 84.491270
1071.000000 71.789658
1072.000000 89.795745
1073.000000 73.448747
1074.000000 79.346232
1075.000000 105.874441
1076.000000 75.164205
1077.000000 79.600169
1078.000000 84.420210
1079.000000 80.816566
1080.000000 83.928884
1081.000000 75.465413
1082.000000 54.250424
1083.000000 100.676292
1084.000000 99.304816
1085.000000 73.964568
1086.000000 76.216688
1087.000000 89.995724
1088.000000 90.868019
1089.000000 79.732363
1090.000000 81.651607
1091.000000 63.749192
1092.000000 100.557034
1093.000000 80.325946
1094.000000 93.342841
1095.000000 89.425972
1096.000000 89.762734
1097.000000 81.098071
1098.000000 84.943434
1099.000000 98.395936
1100.000000 100.743972
1101.000000 74.657348
1102.000000 78.899746
1103.000000 75.367175
1104.000000 73.753429
1105.000000 70.678113
1106.000000 91.902097
1107.000000 70.637451
1108.000000 62.705451
1109.000000 78.686053
1110.000000 63.227043
1111.000000 74.967085
1112.000000 65.877815
1113.000000 87.092522
1114.000000 78.739527
1115.000000 81.105558
1116.000000 82.169406
1117.000000 68.127599
1118.000000 87.583080
1119.000000 63.450255
1120.000000 78.649618
1121.000000 93.387364
1122.000000 91.610239
1123.000000 87.194750
1124.000000 84.284359
1125.000000 92.763815
1126.000000 78.129680
1127.000000 97.942013
1128.000000 69.023847
1129.000000 77.042973
1130.000000 57.248705
1131.000000 78.912478
1132.000000 85.134420
1133.000000 83.511121
1134.000000 90.749010
1135.000000 76.686670
1136.000000 80.172868
1137.000000 85.662968
1138.000000 54.521534
1139.000000 85.872093
1140.000000 101.225567
1141.000000 74.350151
1142.000000 82.309027
1143.000000 69.101082
1144.000000 78.532630
1145.000000 78.691533
1146.000000 69.004337
1147.000000 81.452774
1148.000000 86.546318
1149.000000 83.907956
1150.000000 78.080428
1151.000000 79.846775
1152.000000 85.720237
1153.000000 94.108765
1154.000000 63.250574
1155.000000 93.785362
1156.000000 72.520018
1157.000000 84.925163
1158.000000 90.179684
1159.000000 64.150111
1160.000000 94.508170
1161.000000 101.904519
1162.000000 100.012829
1163.000000 100.848901
1164.000000 83.876123
1165.000000 79.095104
1166.000000 57.760791
1167.000000 83.544865
1168.000000 86.646366
1169.000000 97.580961
1170.000000 63.415479
1171.000000 106.804372
1172.000000 77.518061
1173.000000 75.277361
1174.000000 91.965310
1175.000000 94.267296
1176.000000 80.737747
1177.000000 77.437597
1178.000000 85.427609
1179.000000 84.008751
1180.000000 59.790353
1181.000000 97.196172
1182.000000 79.240588
1183.000000 79.438003
1184.000000 99.666799
1185.000000 81.191623
1186.000000 72.123113
1187.000000 73.246692
1188.000000 65.490743
1189.000000 103.403811
1190.000000 79.771179
1191.000000 90.849103
1192.000000 79.225113
1193.000000 86.062425
1194.000000 78.321928
1195.000000 82.439740
1196.000000 92.578438
1197.000000 80.941241
1198.000000 88.128778
1199.000000 84.121024
1200.000000 98.444358
1201.000000 90.167858
1202.000000 100.325579
1203.000000 84.895391
1204.000000 83.877964
1205.000000 68.486088
1206.000000 86.879859
1207.000000 76.408445
1208.000000 95.434542
1209.000000 70.118045
1210.000000 86.936889
1211.000000 88.335346
1212.000000 86.235876
1213.000000 81.798158
1214.000000 85.764440
1215.000000 80.263673
1216.000000 91.161447
1217.000000 73.466353
1218.000000 74.716240
1219.000000 69.008800
1220.000000 81.398297
1221.000000 67.296038
1222.000000 77.819860
1223.000000 75.080822
1224.000000 86.792633
1225.000000 103.773001
1226.000000 72.292740
1227.000000 78.445171
1228.000000 73.043946
1229.000000 80.626553
1230.000000 90.739361
1231.000000 80.082479
1232.000000 81.026264
1233.000000 63.060293
1234.000000 76.755873
1235.000000 74.270511
1236.000000 79.379063
1237.000000 90.193789
1238.000000 95.228460
1239.000000 81.605465
1240.000000 77.878180
1241.000000 93.871062
1242.000000 85.922087
1243.000000 73.137201
1244.000000 84.736880
1245.000000 86.322447
1246.000000 81.350696
1247.000000 93.238732
1248.000000 81.333169
1249.000000 94.377071
1250.000000 87.308869
1251.000000 74.461703
1252.000000 85.634820
1253.000000 81.499534
1254.000000 70.598210
1255.000000 88.343178
1256.000000 63.523824
1257.000000 78.784133
1258.000000 79.156163
1259.000000 102.489220
1260.000000 90.410590
1261.000000 74.107616
1262.000000 75.213857
1263.000000 71.667847
1264.000000 77.315171
1265.000000 85.112436
1266.000000 80.367110
1267.000000 78.511960
1268.000000 70.674359
1269.000000 65.956647
1270.000000 73.565699
1271.000000 77.717355
1272.000000 71.967896
1273.000000 59.559273
1274.000000 52.363067
1275.000000 83.864084
1276.000000 66.618972
1277.000000 70.792138
1278.000000 91.919138
1279.000000 79.676412
1280.000000 76.559525
1281.000000 69.089576
1282.000000 66.629640
1283.000000 71.886678
1284.000000 75.785859
1285.000000 74.641758
1286.000000 77.577496
1287.000000 70.422558
1288.000000 52.460835
1289.000000 64.538988
1290.000000 66.737494
1291.000000 67.922958
1292.000000 98.142583
1293.000000 81.303492
1294.000000 78.228135
1295.000000 97.660560
1296.000000 71.652043
1297.000000 61.693686
1298.000000 67.723959
1299.000000 64.293773
