# Left column = Time after Trigger in seconds & Right column = # Counts / Exposure = Flux per cm² s
700.000000 9.960399
701.000000 18.965649
702.000000 7.807643
703.000000 12.208773
704.000000 6.660702
705.000000 13.353220
706.000000 8.919653
707.000000 7.797785
708.000000 11.138532
709.000000 11.134801
710.000000 16.761203
711.000000 8.910787
712.000000 10.042192
713.000000 11.157968
714.000000 16.744879
715.000000 15.705470
716.000000 11.147937
717.000000 5.514399
718.000000 11.121791
719.000000 13.389218
720.000000 7.766424
721.000000 3.351212
722.000000 5.557903
723.000000 12.240982
724.000000 7.712282
725.000000 8.928882
726.000000 10.020876
727.000000 13.404505
728.000000 9.936080
729.000000 8.896831
730.000000 7.763488
731.000000 10.022606
732.000000 8.930962
733.000000 5.562840
734.000000 11.231526
735.000000 7.761922
736.000000 15.540205
737.000000 13.355033
738.000000 10.049020
739.000000 10.062262
740.000000 14.490540
741.000000 13.333584
742.000000 8.900300
743.000000 12.201560
744.000000 16.874250
745.000000 13.453283
746.000000 6.745465
747.000000 11.126208
748.000000 7.780854
749.000000 16.746640
750.000000 5.589828
751.000000 4.458070
752.000000 11.161903
753.000000 14.482500
754.000000 6.688330
755.000000 7.829460
756.000000 8.952418
757.000000 11.168598
758.000000 12.264490
759.000000 8.971333
760.000000 9.998577
761.000000 7.802849
762.000000 12.272653
763.000000 17.820304
764.000000 4.436923
765.000000 10.063468
766.000000 7.839569
767.000000 14.529094
768.000000 9.970960
769.000000 13.317856
770.000000 13.486362
771.000000 3.362446
772.000000 11.183636
773.000000 8.994247
774.000000 11.201483
775.000000 10.044447
776.000000 8.986276
777.000000 8.880880
778.000000 7.723824
779.000000 11.228344
780.000000 5.597635
781.000000 11.150865
782.000000 14.533310
783.000000 15.594844
784.000000 17.847461
785.000000 3.366609
786.000000 10.098880
787.000000 12.307498
788.000000 12.342567
789.000000 19.041093
790.000000 5.602427
791.000000 8.919042
792.000000 8.915867
793.000000 7.887794
794.000000 11.181863
795.000000 8.892218
796.000000 8.967680
797.000000 3.393557
798.000000 11.172504
799.000000 9.061633
800.000000 14.655639
801.000000 1.120716
802.000000 9.021687
803.000000 10.049358
804.000000 4.487555
805.000000 10.023853
806.000000 11.260864
807.000000 8.990645
808.000000 15.791443
809.000000 11.186517
810.000000 9.015714
811.000000 5.600718
812.000000 14.642091
813.000000 15.674417
814.000000 9.005441
815.000000 11.166761
816.000000 9.008399
817.000000 5.570276
818.000000 5.595761
819.000000 13.398145
820.000000 8.959410
821.000000 9.003471
822.000000 13.394421
823.000000 11.308778
824.000000 6.733899
825.000000 15.782492
826.000000 10.078641
827.000000 14.529703
828.000000 11.217869
829.000000 12.278390
830.000000 10.105709
831.000000 10.129759
832.000000 11.181134
833.000000 13.461419
834.000000 7.929965
835.000000 12.383466
836.000000 13.453315
837.000000 10.101370
838.000000 13.359336
839.000000 5.592562
840.000000 15.752217
841.000000 13.423755
842.000000 13.458806
843.000000 6.731725
844.000000 10.116884
845.000000 6.758785
846.000000 11.168864
847.000000 16.905175
848.000000 13.417308
849.000000 5.637698
850.000000 17.985042
851.000000 13.517258
852.000000 15.837056
853.000000 8.983328
854.000000 14.594919
855.000000 9.068111
856.000000 11.332158
857.000000 12.356101
858.000000 11.271562
859.000000 9.076535
860.000000 12.421939
861.000000 8.949981
862.000000 9.058737
863.000000 13.491591
864.000000 5.635418
865.000000 7.916428
866.000000 9.022640
867.000000 8.977148
868.000000 11.340587
869.000000 21.295339
870.000000 12.413049
871.000000 13.512266
872.000000 20.151502
873.000000 20.253655
874.000000 12.324575
875.000000 9.019802
876.000000 7.847691
877.000000 14.652433
878.000000 10.162945
879.000000 15.749414
880.000000 11.224222
881.000000 4.540668
882.000000 13.572076
883.000000 7.857601
884.000000 8.949899
885.000000 12.336189
886.000000 8.946527
887.000000 12.379425
888.000000 13.543692
889.000000 8.979536
890.000000 14.663647
891.000000 7.903446
892.000000 9.004009
893.000000 13.471635
894.000000 3.409135
895.000000 11.262521
896.000000 21.524276
897.000000 12.407066
898.000000 11.257166
899.000000 13.582090
900.000000 8.975347
901.000000 11.248391
902.000000 9.011062
903.000000 14.634655
904.000000 12.245795
905.000000 12.434236
906.000000 11.237548
907.000000 23.680635
908.000000 13.457512
909.000000 6.784808
910.000000 15.727493
911.000000 9.005165
912.000000 6.775430
913.000000 10.165282
914.000000 12.422124
915.000000 10.188631
916.000000 8.919028
917.000000 10.136054
918.000000 7.920792
919.000000 10.136166
920.000000 6.748911
921.000000 10.137830
922.000000 15.675937
923.000000 12.459404
924.000000 7.964976
925.000000 12.451487
926.000000 15.671504
927.000000 15.846979
928.000000 13.526549
929.000000 13.645566
930.000000 12.456701
931.000000 12.435977
932.000000 14.608176
933.000000 5.678790
934.000000 13.513939
935.000000 7.929741
936.000000 8.001577
937.000000 10.137274
938.000000 4.568118
939.000000 17.026079
940.000000 12.404473
941.000000 9.109045
942.000000 11.229169
943.000000 13.662146
944.000000 14.813615
945.000000 7.899054
946.000000 9.094918
947.000000 14.675041
948.000000 10.217798
949.000000 7.955408
950.000000 3.377814
951.000000 11.308854
952.000000 18.066304
953.000000 13.622938
954.000000 10.234980
955.000000 15.942438
956.000000 10.199443
957.000000 19.134993
958.000000 8.997804
959.000000 20.218493
960.000000 9.060918
961.000000 7.922906
962.000000 12.513374
963.000000 9.007512
964.000000 19.352185
965.000000 6.828429
966.000000 7.948161
967.000000 7.949078
968.000000 12.593563
969.000000 5.659284
970.000000 16.983015
971.000000 10.240613
972.000000 14.586711
973.000000 6.794400
974.000000 13.657463
975.000000 6.793311
976.000000 12.431347
977.000000 7.897481
978.000000 10.217010
979.000000 23.834242
980.000000 26.321029
981.000000 4.511821
982.000000 11.372816
983.000000 13.710327
984.000000 11.330755
985.000000 14.706955
986.000000 9.064463
987.000000 15.897416
988.000000 19.270076
989.000000 12.476705
990.000000 6.774320
991.000000 13.539052
992.000000 5.677742
993.000000 15.946679
994.000000 11.341891
995.000000 13.644154
996.000000 15.867550
997.000000 10.216363
998.000000 11.431730
999.000000 14.720505
1000.000000 10.226374
1001.000000 11.419518
1002.000000 14.744023
1003.000000 10.275093
1004.000000 11.447532
1005.000000 10.215082
1006.000000 12.454765
1007.000000 4.542439
1008.000000 15.938869
1009.000000 14.686219
1010.000000 14.705953
1011.000000 11.423422
1012.000000 5.709886
1013.000000 10.331401
1014.000000 20.551882
1015.000000 9.151064
1016.000000 14.859745
1017.000000 19.420293
1018.000000 14.711704
1019.000000 10.275117
1020.000000 17.051854
1021.000000 21.833773
1022.000000 28.529268
1023.000000 35.364306
1024.000000 48.278448
1025.000000 45.750184
1026.000000 43.352085
1027.000000 35.476569
1028.000000 35.534174
1029.000000 29.570302
1030.000000 29.780000
1031.000000 26.252343
1032.000000 17.102230
1033.000000 20.521873
1034.000000 25.089059
1035.000000 21.697027
1036.000000 22.849247
1037.000000 15.930602
1038.000000 18.146849
1039.000000 19.369546
1040.000000 10.266054
1041.000000 10.256817
1042.000000 11.337483
1043.000000 14.914099
1044.000000 9.158991
1045.000000 16.065148
1046.000000 10.207413
1047.000000 18.302330
1048.000000 14.791909
1049.000000 16.188206
1050.000000 17.010910
1051.000000 17.117976
1052.000000 15.985263
1053.000000 22.751387
1054.000000 9.065409
1055.000000 15.880896
1056.000000 13.657893
1057.000000 12.511812
1058.000000 18.205605
1059.000000 16.006548
1060.000000 8.013671
1061.000000 9.094507
1062.000000 19.340429
1063.000000 13.801683
1064.000000 6.808000
1065.000000 11.440984
1066.000000 14.897236
1067.000000 13.741255
1068.000000 14.784685
1069.000000 11.413498
1070.000000 11.386061
1071.000000 17.234884
1072.000000 12.558054
1073.000000 11.430941
1074.000000 5.700665
1075.000000 18.316509
1076.000000 18.271753
1077.000000 13.849407
1078.000000 13.644948
1079.000000 6.859077
1080.000000 13.716457
1081.000000 21.928099
1082.000000 11.412563
1083.000000 17.018626
1084.000000 15.995818
1085.000000 13.717908
1086.000000 16.004025
1087.000000 19.515469
1088.000000 14.804768
1089.000000 12.562307
1090.000000 12.585368
1091.000000 18.211289
1092.000000 10.353048
1093.000000 6.860750
1094.000000 12.567161
1095.000000 13.733505
1096.000000 14.784882
1097.000000 24.212433
1098.000000 9.149683
1099.000000 12.564336
1100.000000 9.122275
1101.000000 9.149549
1102.000000 16.029363
1103.000000 18.213166
1104.000000 6.867103
1105.000000 12.629299
1106.000000 18.081734
1107.000000 18.238501
1108.000000 15.997629
1109.000000 22.941241
1110.000000 20.627000
1111.000000 13.625624
1112.000000 16.138295
1113.000000 4.566398
1114.000000 15.857456
1115.000000 14.846985
1116.000000 26.478672
1117.000000 13.697858
1118.000000 12.485658
1119.000000 21.737560
1120.000000 12.492556
1121.000000 12.480519
1122.000000 17.043925
1123.000000 14.934920
1124.000000 7.917263
1125.000000 10.253450
1126.000000 3.426879
1127.000000 21.750351
1128.000000 14.852386
1129.000000 10.360652
1130.000000 13.720462
1131.000000 9.177230
1132.000000 10.222598
1133.000000 6.846003
1134.000000 12.548358
1135.000000 5.696813
1136.000000 10.292163
1137.000000 11.420897
1138.000000 9.130549
1139.000000 13.797179
1140.000000 18.242099
1141.000000 12.507743
1142.000000 12.550468
1143.000000 7.987433
1144.000000 13.733097
1145.000000 11.473870
1146.000000 19.512465
1147.000000 11.434150
1148.000000 17.081293
1149.000000 14.821133
1150.000000 17.057037
1151.000000 13.753947
1152.000000 5.757328
1153.000000 17.188295
1154.000000 16.042228
1155.000000 9.157134
1156.000000 13.809708
1157.000000 11.504838
1158.000000 18.375163
1159.000000 20.498460
1160.000000 20.600182
1161.000000 8.015130
1162.000000 16.142113
1163.000000 17.146074
1164.000000 9.100196
1165.000000 13.677161
1166.000000 18.347042
1167.000000 16.064558
1168.000000 15.927592
1169.000000 11.379987
1170.000000 11.466305
1171.000000 20.661467
1172.000000 13.672901
1173.000000 13.806576
1174.000000 8.029013
1175.000000 11.383495
1176.000000 17.170224
1177.000000 19.421812
1178.000000 10.346248
1179.000000 17.081130
1180.000000 10.298734
1181.000000 15.938085
1182.000000 11.445919
1183.000000 10.254023
1184.000000 6.861545
1185.000000 16.098668
1186.000000 11.409436
1187.000000 13.714155
1188.000000 20.751658
1189.000000 13.817742
1190.000000 14.786077
1191.000000 12.547681
1192.000000 14.908087
1193.000000 20.577804
1194.000000 9.088457
1195.000000 4.593259
1196.000000 6.829838
1197.000000 10.233747
1198.000000 13.776141
1199.000000 17.204438
1200.000000 13.722477
1201.000000 17.290124
1202.000000 15.948214
1203.000000 9.215128
1204.000000 14.906386
1205.000000 17.204183
1206.000000 10.422008
1207.000000 11.447981
1208.000000 14.930843
1209.000000 13.826379
1210.000000 9.181069
1211.000000 10.356067
1212.000000 11.556370
1213.000000 8.048068
1214.000000 20.477627
1215.000000 14.959536
1216.000000 4.595344
1217.000000 21.901767
1218.000000 14.947544
1219.000000 13.860494
1220.000000 10.337872
1221.000000 17.221026
1222.000000 16.155937
1223.000000 13.684754
1224.000000 13.837574
1225.000000 19.739497
1226.000000 16.126475
1227.000000 16.178261
1228.000000 20.741387
1229.000000 19.459148
1230.000000 9.163300
1231.000000 8.046124
1232.000000 21.929811
1233.000000 12.623708
1234.000000 13.740616
1235.000000 16.182435
1236.000000 6.948106
1237.000000 13.739305
1238.000000 8.012810
1239.000000 9.220876
1240.000000 9.205614
1241.000000 17.240043
1242.000000 15.082984
1243.000000 15.027930
1244.000000 13.775521
1245.000000 17.248038
1246.000000 11.590672
1247.000000 9.303921
1248.000000 13.948179
1249.000000 12.649426
1250.000000 19.481063
1251.000000 15.058472
1252.000000 16.005882
1253.000000 15.086445
1254.000000 18.372679
1255.000000 12.684116
1256.000000 10.379273
1257.000000 16.197852
1258.000000 13.757691
1259.000000 10.272552
1260.000000 9.290467
1261.000000 10.273101
1262.000000 14.960816
1263.000000 11.475672
1264.000000 13.985979
1265.000000 13.711600
1266.000000 12.731314
1267.000000 16.214016
1268.000000 14.896474
1269.000000 13.835484
1270.000000 9.255512
1271.000000 17.269344
1272.000000 19.824339
1273.000000 17.322803
1274.000000 10.327299
1275.000000 4.605162
1276.000000 19.625868
1277.000000 23.072151
1278.000000 24.305074
1279.000000 15.104897
1280.000000 9.254459
1281.000000 9.198052
1282.000000 12.664983
1283.000000 11.491190
1284.000000 10.430662
1285.000000 18.457363
1286.000000 11.484493
1287.000000 14.995773
1288.000000 18.613009
1289.000000 17.434792
1290.000000 13.867477
1291.000000 11.552161
1292.000000 14.989416
1293.000000 13.917863
1294.000000 11.588857
1295.000000 11.566089
1296.000000 12.564266
1297.000000 9.204264
1298.000000 9.301046
1299.000000 11.604257
