# Left column = Time after Trigger in seconds & Right column = # Counts / Exposure = Flux per cm² s
700.000000 16.874507
701.000000 15.661912
702.000000 20.055660
703.000000 11.184566
704.000000 9.013906
705.000000 10.091099
706.000000 13.389147
707.000000 16.853705
708.000000 21.411774
709.000000 15.689426
710.000000 8.957988
711.000000 15.553902
712.000000 8.975584
713.000000 14.513620
714.000000 6.748313
715.000000 10.088011
716.000000 12.300095
717.000000 11.091824
718.000000 6.722120
719.000000 17.854941
720.000000 12.341882
721.000000 7.767001
722.000000 4.475211
723.000000 9.975758
724.000000 20.182042
725.000000 12.132662
726.000000 12.324668
727.000000 12.367849
728.000000 19.886178
729.000000 12.199353
730.000000 7.819968
731.000000 6.725565
732.000000 7.799256
733.000000 14.674382
734.000000 16.723485
735.000000 20.000036
736.000000 23.452606
737.000000 13.335951
738.000000 8.944665
739.000000 23.504102
740.000000 11.071904
741.000000 8.974625
742.000000 11.179700
743.000000 11.137198
744.000000 13.403581
745.000000 11.201084
746.000000 11.227965
747.000000 14.348656
748.000000 13.359823
749.000000 6.712144
750.000000 13.408418
751.000000 10.006934
752.000000 21.099177
753.000000 14.573419
754.000000 20.263355
755.000000 8.900369
756.000000 19.173370
757.000000 12.278880
758.000000 10.048457
759.000000 10.019449
760.000000 13.400761
761.000000 8.961796
762.000000 15.623050
763.000000 11.126875
764.000000 18.888178
765.000000 13.423140
766.000000 14.451392
767.000000 12.380385
768.000000 17.755253
769.000000 11.038702
770.000000 17.857760
771.000000 8.906571
772.000000 16.706683
773.000000 14.310371
774.000000 7.795876
775.000000 20.062057
776.000000 14.472790
777.000000 13.344463
778.000000 16.683468
779.000000 13.368118
780.000000 11.127961
781.000000 18.891568
782.000000 15.726965
783.000000 5.559387
784.000000 16.592160
785.000000 13.366507
786.000000 16.652977
787.000000 7.815358
788.000000 8.954168
789.000000 13.309032
790.000000 12.255033
791.000000 13.264545
792.000000 8.813708
793.000000 12.220307
794.000000 16.505634
795.000000 7.789280
796.000000 12.205642
797.000000 17.650217
798.000000 6.667776
799.000000 12.267338
800.000000 10.049897
801.000000 10.002959
802.000000 13.352811
803.000000 16.596117
804.000000 8.839249
805.000000 13.309129
806.000000 13.351924
807.000000 11.119006
808.000000 14.358100
809.000000 9.938202
810.000000 13.302065
811.000000 9.996128
812.000000 13.301241
813.000000 12.134560
814.000000 15.509099
815.000000 17.705392
816.000000 14.393243
817.000000 14.438307
818.000000 11.097151
819.000000 9.929969
820.000000 21.014520
821.000000 11.061966
822.000000 9.955307
823.000000 4.419591
824.000000 16.501311
825.000000 13.177261
826.000000 5.535531
827.000000 9.932241
828.000000 12.222982
829.000000 11.085723
830.000000 5.523161
831.000000 14.416626
832.000000 11.033603
833.000000 6.623279
834.000000 9.986445
835.000000 11.069861
836.000000 9.940075
837.000000 11.059066
838.000000 14.275793
839.000000 12.112329
840.000000 10.002842
841.000000 9.982087
842.000000 7.788175
843.000000 7.755281
844.000000 12.140239
845.000000 18.737046
846.000000 11.022896
847.000000 8.853061
848.000000 13.243906
849.000000 15.452515
850.000000 8.804022
851.000000 15.452768
852.000000 12.286203
853.000000 13.272200
854.000000 9.951314
855.000000 19.973341
856.000000 13.218737
857.000000 14.352265
858.000000 14.390240
859.000000 11.124323
860.000000 14.375957
861.000000 6.644792
862.000000 13.205763
863.000000 15.404626
864.000000 17.600670
865.000000 8.905609
866.000000 10.937995
867.000000 10.932320
868.000000 14.264960
869.000000 12.190844
870.000000 10.991621
871.000000 11.008995
872.000000 7.751927
873.000000 15.426135
874.000000 15.482816
875.000000 7.693787
876.000000 6.677026
877.000000 9.916666
878.000000 17.603633
879.000000 9.897710
880.000000 8.853705
881.000000 9.927358
882.000000 11.056518
883.000000 11.057312
884.000000 12.060062
885.000000 12.076581
886.000000 8.824713
887.000000 17.553593
888.000000 15.343182
889.000000 7.689873
890.000000 18.786201
891.000000 11.081269
892.000000 11.020184
893.000000 14.359574
894.000000 9.901507
895.000000 9.877125
896.000000 19.834407
897.000000 14.253109
898.000000 8.757692
899.000000 8.826400
900.000000 11.012570
901.000000 17.426387
902.000000 6.619745
903.000000 12.100138
904.000000 8.816063
905.000000 17.539410
906.000000 6.621802
907.000000 5.501769
908.000000 12.054267
909.000000 9.930330
910.000000 7.654990
911.000000 13.255416
912.000000 9.909389
913.000000 9.861252
914.000000 12.078964
915.000000 10.909266
916.000000 9.867549
917.000000 12.034581
918.000000 14.370480
919.000000 7.688787
920.000000 11.028056
921.000000 14.421529
922.000000 6.584525
923.000000 10.931819
924.000000 15.272099
925.000000 13.154384
926.000000 13.247339
927.000000 9.922775
928.000000 13.232394
929.000000 12.042329
930.000000 9.793073
931.000000 15.306206
932.000000 18.603528
933.000000 12.137427
934.000000 6.598565
935.000000 13.069263
936.000000 5.463681
937.000000 11.005722
938.000000 7.707391
939.000000 7.655776
940.000000 15.429901
941.000000 10.970287
942.000000 8.833279
943.000000 10.947390
944.000000 9.926144
945.000000 15.321870
946.000000 15.348980
947.000000 9.932268
948.000000 11.983202
949.000000 9.840431
950.000000 9.883992
951.000000 18.576358
952.000000 5.494915
953.000000 8.760837
954.000000 7.636485
955.000000 10.911323
956.000000 4.389755
957.000000 14.313352
958.000000 14.280355
959.000000 6.570911
960.000000 8.741295
961.000000 15.296350
962.000000 14.188424
963.000000 17.468389
964.000000 3.279748
965.000000 8.823975
966.000000 15.368987
967.000000 8.819110
968.000000 6.569803
969.000000 8.720483
970.000000 16.359157
971.000000 6.538363
972.000000 9.779183
973.000000 7.678695
974.000000 15.354299
975.000000 6.508430
976.000000 11.980835
977.000000 13.101337
978.000000 14.195831
979.000000 14.118432
980.000000 9.810396
981.000000 7.673080
982.000000 13.055890
983.000000 11.927079
984.000000 9.811999
985.000000 7.643926
986.000000 5.463286
987.000000 11.963497
988.000000 10.884676
989.000000 5.429163
990.000000 5.417326
991.000000 6.517838
992.000000 10.921735
993.000000 13.187024
994.000000 8.773239
995.000000 9.843720
996.000000 12.037902
997.000000 14.159259
998.000000 5.456283
999.000000 16.303852
1000.000000 38.091188
1001.000000 18.418914
1002.000000 17.395191
1003.000000 11.963875
1004.000000 7.608855
1005.000000 10.935802
1006.000000 8.686734
1007.000000 8.744122
1008.000000 9.806117
1009.000000 10.827061
1010.000000 14.162716
1011.000000 14.189336
1012.000000 18.504322
1013.000000 9.761179
1014.000000 8.723523
1015.000000 8.751104
1016.000000 9.808702
1017.000000 12.010323
1018.000000 13.048552
1019.000000 13.142636
1020.000000 16.285562
1021.000000 18.630959
1022.000000 7.633240
1023.000000 17.402834
1024.000000 4.382942
1025.000000 15.329721
1026.000000 7.593625
1027.000000 16.334552
1028.000000 4.340359
1029.000000 6.576941
1030.000000 6.552893
1031.000000 13.095368
1032.000000 13.055397
1033.000000 17.381231
1034.000000 10.856925
1035.000000 10.890179
1036.000000 10.890045
1037.000000 12.025039
1038.000000 10.840747
1039.000000 14.145064
1040.000000 10.970664
1041.000000 8.775054
1042.000000 17.410176
1043.000000 12.024679
1044.000000 15.255861
1045.000000 8.665021
1046.000000 15.170436
1047.000000 6.537898
1048.000000 10.952771
1049.000000 13.023568
1050.000000 8.678173
1051.000000 8.670014
1052.000000 14.144844
1053.000000 9.856569
1054.000000 10.795253
1055.000000 11.910166
1056.000000 15.175685
1057.000000 11.917010
1058.000000 7.600392
1059.000000 10.925232
1060.000000 17.399037
1061.000000 5.431847
1062.000000 13.030061
1063.000000 10.838501
1064.000000 11.982659
1065.000000 14.065916
1066.000000 12.026111
1067.000000 8.749073
1068.000000 7.587333
1069.000000 3.255747
1070.000000 14.170012
1071.000000 8.702374
1072.000000 10.867003
1073.000000 7.607734
1074.000000 9.755649
1075.000000 9.805571
1076.000000 13.069443
1077.000000 10.867725
1078.000000 13.061442
1079.000000 11.969505
1080.000000 13.071354
1081.000000 13.004369
1082.000000 14.041804
1083.000000 10.882959
1084.000000 9.728824
1085.000000 11.940591
1086.000000 13.066804
1087.000000 6.526502
1088.000000 6.519677
1089.000000 10.762005
1090.000000 7.559395
1091.000000 10.851237
1092.000000 9.754436
1093.000000 9.739688
1094.000000 7.583815
1095.000000 10.834536
1096.000000 7.592491
1097.000000 9.773740
1098.000000 9.783429
1099.000000 14.116568
1100.000000 7.626874
1101.000000 10.815738
1102.000000 6.523556
1103.000000 17.372887
1104.000000 9.733287
1105.000000 10.855449
1106.000000 13.030673
1107.000000 6.517137
1108.000000 15.187709
1109.000000 8.628286
1110.000000 10.811025
1111.000000 6.519789
1112.000000 16.281888
1113.000000 9.694937
1114.000000 7.558724
1115.000000 10.917692
1116.000000 15.155892
1117.000000 9.729676
1118.000000 10.829061
1119.000000 4.333062
1120.000000 7.584352
1121.000000 8.697742
1122.000000 6.525622
1123.000000 16.200680
1124.000000 9.708529
1125.000000 14.036119
1126.000000 9.758903
1127.000000 5.398702
1128.000000 11.863659
1129.000000 10.764758
1130.000000 8.685887
1131.000000 10.801643
1132.000000 7.556799
1133.000000 7.597881
1134.000000 6.503687
1135.000000 10.835516
1136.000000 8.656537
1137.000000 14.053977
1138.000000 10.757948
1139.000000 9.731275
1140.000000 12.982320
1141.000000 15.170280
1142.000000 7.570972
1143.000000 9.746755
1144.000000 9.749708
1145.000000 8.612449
1146.000000 6.466107
1147.000000 12.999887
1148.000000 6.474505
1149.000000 6.486191
1150.000000 12.880508
1151.000000 10.812943
1152.000000 10.837891
1153.000000 11.980867
1154.000000 11.897790
1155.000000 11.913066
1156.000000 8.584303
1157.000000 8.729712
1158.000000 7.559738
1159.000000 17.298114
1160.000000 7.582307
1161.000000 5.441078
1162.000000 9.764440
1163.000000 3.237124
1164.000000 14.054768
1165.000000 15.222874
1166.000000 12.953484
1167.000000 8.631309
1168.000000 5.392483
1169.000000 9.632413
1170.000000 8.661836
1171.000000 13.965595
1172.000000 11.905204
1173.000000 9.694668
1174.000000 6.473657
1175.000000 10.824648
1176.000000 6.461168
1177.000000 8.598523
1178.000000 10.784908
1179.000000 5.409861
1180.000000 5.403715
1181.000000 7.534246
1182.000000 16.213028
1183.000000 12.959175
1184.000000 9.745040
1185.000000 5.390279
1186.000000 12.936231
1187.000000 9.744575
1188.000000 17.189075
1189.000000 7.580329
1190.000000 12.996742
1191.000000 8.652005
1192.000000 11.935570
1193.000000 4.326894
1194.000000 9.702453
1195.000000 15.073692
1196.000000 8.597035
1197.000000 10.777072
1198.000000 6.462821
1199.000000 10.822617
1200.000000 4.316446
1201.000000 9.689040
1202.000000 9.716135
1203.000000 5.413720
1204.000000 5.392979
1205.000000 4.308760
1206.000000 11.798503
1207.000000 5.380832
1208.000000 11.868364
1209.000000 10.794777
1210.000000 14.053345
1211.000000 9.649723
1212.000000 5.389443
1213.000000 13.017731
1214.000000 4.303205
1215.000000 5.396194
1216.000000 12.867344
1217.000000 7.532722
1218.000000 8.647177
1219.000000 9.650066
1220.000000 10.771206
1221.000000 5.372183
1222.000000 6.477930
1223.000000 7.520492
1224.000000 10.815286
1225.000000 9.720605
1226.000000 11.831866
1227.000000 7.501090
1228.000000 15.131482
1229.000000 7.498185
1230.000000 11.858169
1231.000000 5.364432
1232.000000 7.538921
1233.000000 5.411659
1234.000000 7.544435
1235.000000 11.826208
1236.000000 7.580435
1237.000000 6.463076
1238.000000 9.703421
1239.000000 3.236813
1240.000000 6.434966
1241.000000 17.383759
1242.000000 7.512272
1243.000000 9.668523
1244.000000 6.512373
1245.000000 11.859344
1246.000000 10.823636
1247.000000 16.112425
1248.000000 12.892507
1249.000000 6.475498
1250.000000 15.148356
1251.000000 6.493370
1252.000000 9.725328
1253.000000 6.450708
1254.000000 9.683726
1255.000000 6.485805
1256.000000 11.794841
1257.000000 9.586599
1258.000000 11.813282
1259.000000 10.690814
1260.000000 9.657321
1261.000000 11.829484
1262.000000 9.702927
1263.000000 8.612350
1264.000000 7.559507
1265.000000 7.585872
1266.000000 6.443538
1267.000000 10.803054
1268.000000 9.649052
1269.000000 9.664031
1270.000000 10.743108
1271.000000 10.711141
1272.000000 11.840632
1273.000000 9.625055
1274.000000 9.746108
1275.000000 13.966645
1276.000000 7.563249
1277.000000 10.842450
1278.000000 6.433568
1279.000000 16.051409
1280.000000 10.834787
1281.000000 7.539346
1282.000000 8.629364
1283.000000 7.514788
1284.000000 11.917555
1285.000000 7.529397
1286.000000 6.439597
1287.000000 4.309987
1288.000000 6.440681
1289.000000 8.641224
1290.000000 5.380370
1291.000000 14.926356
1292.000000 8.580912
1293.000000 9.646817
1294.000000 12.904504
1295.000000 8.601673
1296.000000 5.385778
1297.000000 4.339903
1298.000000 13.010404
1299.000000 8.595963
