# Left column = Time after Trigger in seconds & Right column = # Counts / Exposure = Flux per cm² s
700.000000 9.876943
701.000000 9.939230
702.000000 6.642884
703.000000 11.013152
704.000000 7.721483
705.000000 4.388709
706.000000 8.822440
707.000000 13.168163
708.000000 10.962055
709.000000 7.676790
710.000000 6.603913
711.000000 7.714334
712.000000 12.243679
713.000000 18.796097
714.000000 17.487781
715.000000 13.198477
716.000000 16.495155
717.000000 9.916011
718.000000 17.722654
719.000000 12.022530
720.000000 10.976759
721.000000 8.822211
722.000000 6.610428
723.000000 16.548551
724.000000 6.628074
725.000000 15.387867
726.000000 6.605675
727.000000 7.737426
728.000000 5.523754
729.000000 16.627056
730.000000 2.203613
731.000000 11.007137
732.000000 10.983995
733.000000 16.373577
734.000000 9.942127
735.000000 16.586555
736.000000 12.138591
737.000000 10.995755
738.000000 5.525381
739.000000 12.174009
740.000000 6.605717
741.000000 7.739859
742.000000 9.907867
743.000000 11.018892
744.000000 12.066455
745.000000 9.984258
746.000000 15.455579
747.000000 10.999127
748.000000 7.722732
749.000000 8.717057
750.000000 9.923213
751.000000 9.850582
752.000000 13.249132
753.000000 16.457236
754.000000 8.825779
755.000000 11.012329
756.000000 15.510655
757.000000 5.463970
758.000000 14.332079
759.000000 5.508546
760.000000 20.889728
761.000000 18.785757
762.000000 9.921793
763.000000 11.022011
764.000000 9.917255
765.000000 18.768433
766.000000 6.597341
767.000000 12.123679
768.000000 13.254694
769.000000 23.134212
770.000000 9.937153
771.000000 8.809255
772.000000 14.260055
773.000000 10.972881
774.000000 16.509984
775.000000 7.751848
776.000000 8.797257
777.000000 18.754717
778.000000 11.070567
779.000000 8.782053
780.000000 11.140395
781.000000 6.579741
782.000000 8.821826
783.000000 11.069926
784.000000 13.207857
785.000000 14.445021
786.000000 18.637424
787.000000 16.585730
788.000000 17.619815
789.000000 4.379896
790.000000 14.319065
791.000000 11.033980
792.000000 8.843781
793.000000 13.279112
794.000000 8.769971
795.000000 14.347580
796.000000 14.423730
797.000000 13.354835
798.000000 16.565061
799.000000 4.382471
800.000000 13.272649
801.000000 16.626105
802.000000 15.463908
803.000000 9.947583
804.000000 11.004429
805.000000 11.102119
806.000000 7.696833
807.000000 8.804843
808.000000 11.078351
809.000000 9.991008
810.000000 13.373089
811.000000 8.804717
812.000000 6.649178
813.000000 14.408783
814.000000 13.281481
815.000000 12.144464
816.000000 13.409700
817.000000 7.697393
818.000000 8.854028
819.000000 13.173192
820.000000 13.219384
821.000000 12.142935
822.000000 6.671445
823.000000 9.910872
824.000000 7.726623
825.000000 16.579396
826.000000 7.748952
827.000000 6.571382
828.000000 11.032309
829.000000 9.952810
830.000000 14.436513
831.000000 8.859171
832.000000 7.774161
833.000000 11.029171
834.000000 8.881636
835.000000 12.096432
836.000000 15.523517
837.000000 8.806969
838.000000 12.175720
839.000000 12.187343
840.000000 14.327312
841.000000 25.466510
842.000000 15.348486
843.000000 14.359574
844.000000 12.204048
845.000000 7.716426
846.000000 13.345289
847.000000 13.351983
848.000000 8.845649
849.000000 8.880163
850.000000 8.824756
851.000000 17.539892
852.000000 6.668096
853.000000 7.771250
854.000000 8.830615
855.000000 8.876151
856.000000 6.637206
857.000000 8.847280
858.000000 13.262247
859.000000 11.107113
860.000000 10.975537
861.000000 9.984668
862.000000 7.752730
863.000000 12.094161
864.000000 13.292432
865.000000 12.125775
866.000000 11.109357
867.000000 13.326968
868.000000 12.072904
869.000000 5.516248
870.000000 22.098387
871.000000 15.456054
872.000000 15.381017
873.000000 4.434208
874.000000 8.837695
875.000000 15.435988
876.000000 2.224555
877.000000 11.072011
878.000000 12.214579
879.000000 12.141826
880.000000 9.985427
881.000000 9.942745
882.000000 7.731323
883.000000 15.382221
884.000000 12.089202
885.000000 9.893746
886.000000 16.656077
887.000000 8.837213
888.000000 8.845470
889.000000 9.849584
890.000000 6.611808
891.000000 9.897196
892.000000 7.761533
893.000000 5.543739
894.000000 23.046766
895.000000 13.331962
896.000000 7.737093
897.000000 13.168601
898.000000 11.079131
899.000000 7.776972
900.000000 8.778548
901.000000 14.439745
902.000000 14.408602
903.000000 12.189737
904.000000 8.855905
905.000000 6.614878
906.000000 9.981088
907.000000 8.974395
908.000000 16.558924
909.000000 18.792224
910.000000 13.187718
911.000000 13.308785
912.000000 13.311593
913.000000 16.731237
914.000000 12.129245
915.000000 9.887001
916.000000 14.424265
917.000000 9.994412
918.000000 12.204060
919.000000 18.843653
920.000000 9.978712
921.000000 17.656970
922.000000 13.263788
923.000000 16.688116
924.000000 13.269302
925.000000 16.579369
926.000000 14.346702
927.000000 11.060908
928.000000 9.869283
929.000000 14.395496
930.000000 8.842667
931.000000 14.344643
932.000000 12.206145
933.000000 13.283744
934.000000 14.337521
935.000000 17.681189
936.000000 8.859262
937.000000 12.073697
938.000000 16.635433
939.000000 12.102360
940.000000 13.306763
941.000000 14.497757
942.000000 11.074778
943.000000 12.202110
944.000000 13.323049
945.000000 14.316204
946.000000 8.796182
947.000000 14.453828
948.000000 18.817992
949.000000 13.242120
950.000000 12.159141
951.000000 9.950641
952.000000 8.826370
953.000000 14.479368
954.000000 6.624507
955.000000 9.902296
956.000000 9.984354
957.000000 4.432235
958.000000 15.558137
959.000000 8.891188
960.000000 12.142043
961.000000 8.871782
962.000000 9.894172
963.000000 8.919458
964.000000 11.123507
965.000000 12.236286
966.000000 7.756219
967.000000 7.765172
968.000000 8.768777
969.000000 13.260593
970.000000 11.014587
971.000000 12.159452
972.000000 5.526542
973.000000 15.536155
974.000000 11.052238
975.000000 6.665547
976.000000 15.374563
977.000000 12.182797
978.000000 4.412567
979.000000 8.823699
980.000000 16.539074
981.000000 8.888845
982.000000 11.120157
983.000000 11.055200
984.000000 11.109567
985.000000 18.847644
986.000000 7.809637
987.000000 12.177439
988.000000 6.650228
989.000000 9.906013
990.000000 14.356459
991.000000 8.857273
992.000000 15.443158
993.000000 18.883642
994.000000 13.237919
995.000000 16.603540
996.000000 13.345894
997.000000 13.318488
998.000000 25.404975
999.000000 65.990634
1000.000000 84.374240
1001.000000 76.608627
1002.000000 57.924140
1003.000000 46.459528
1004.000000 28.732874
1005.000000 29.771287
1006.000000 32.228468
1007.000000 29.797213
1008.000000 32.275077
1009.000000 22.169153
1010.000000 16.653918
1011.000000 24.401542
1012.000000 26.649667
1013.000000 19.849164
1014.000000 29.768831
1015.000000 22.283465
1016.000000 16.540327
1017.000000 14.303881
1018.000000 12.189449
1019.000000 15.492215
1020.000000 16.727771
1021.000000 8.861028
1022.000000 14.333066
1023.000000 21.057722
1024.000000 12.150202
1025.000000 15.499313
1026.000000 14.466796
1027.000000 15.471751
1028.000000 14.331124
1029.000000 14.510784
1030.000000 15.354526
1031.000000 11.052891
1032.000000 14.216768
1033.000000 6.642015
1034.000000 8.859756
1035.000000 14.420297
1036.000000 22.108712
1037.000000 11.099518
1038.000000 12.209569
1039.000000 11.075193
1040.000000 8.879472
1041.000000 10.003779
1042.000000 11.112723
1043.000000 13.165074
1044.000000 10.079098
1045.000000 15.561470
1046.000000 11.107940
1047.000000 11.053601
1048.000000 9.948573
1049.000000 6.605712
1050.000000 15.517282
1051.000000 6.628889
1052.000000 14.408839
1053.000000 5.537344
1054.000000 20.967368
1055.000000 11.063860
1056.000000 16.595436
1057.000000 14.317912
1058.000000 16.590733
1059.000000 7.672980
1060.000000 12.155873
1061.000000 16.578009
1062.000000 9.995640
1063.000000 17.896251
1064.000000 18.779335
1065.000000 15.536242
1066.000000 14.374845
1067.000000 5.560657
1068.000000 12.116634
1069.000000 11.060537
1070.000000 7.675150
1071.000000 14.348254
1072.000000 11.170230
1073.000000 13.289428
1074.000000 8.849146
1075.000000 12.189070
1076.000000 8.859361
1077.000000 15.581482
1078.000000 15.416107
1079.000000 12.193584
1080.000000 12.167481
1081.000000 19.803745
1082.000000 12.080228
1083.000000 7.759040
1084.000000 7.716584
1085.000000 13.359423
1086.000000 8.804676
1087.000000 13.253424
1088.000000 9.949883
1089.000000 15.527920
1090.000000 15.476097
1091.000000 12.180468
1092.000000 14.402796
1093.000000 15.698267
1094.000000 8.835598
1095.000000 16.575505
1096.000000 12.103369
1097.000000 8.838544
1098.000000 8.822091
1099.000000 21.029843
1100.000000 14.413930
1101.000000 11.131853
1102.000000 16.741310
1103.000000 6.638266
1104.000000 10.918532
1105.000000 12.191949
1106.000000 10.039663
1107.000000 8.849935
1108.000000 15.556040
1109.000000 15.505090
1110.000000 15.469347
1111.000000 16.469028
1112.000000 18.848515
1113.000000 10.015952
1114.000000 9.976884
1115.000000 20.034324
1116.000000 14.407544
1117.000000 13.393508
1118.000000 7.757157
1119.000000 11.024982
1120.000000 15.487522
1121.000000 12.129535
1122.000000 9.956601
1123.000000 9.956719
1124.000000 8.875757
1125.000000 14.364408
1126.000000 17.654084
1127.000000 7.769232
1128.000000 13.276343
1129.000000 10.000714
1130.000000 18.765242
1131.000000 12.206732
1132.000000 8.863431
1133.000000 10.031660
1134.000000 15.505996
1135.000000 11.029058
1136.000000 15.376534
1137.000000 11.022324
1138.000000 12.205842
1139.000000 15.520252
1140.000000 13.232385
1141.000000 12.095670
1142.000000 19.963753
1143.000000 6.676411
1144.000000 8.879128
1145.000000 12.263187
1146.000000 14.383289
1147.000000 14.375265
1148.000000 10.023487
1149.000000 13.326070
1150.000000 4.442310
1151.000000 21.169909
1152.000000 6.639490
1153.000000 13.230275
1154.000000 14.263785
1155.000000 11.023234
1156.000000 18.918403
1157.000000 5.550184
1158.000000 7.716200
1159.000000 12.152824
1160.000000 19.956015
1161.000000 12.129344
1162.000000 12.095391
1163.000000 6.624580
1164.000000 14.320703
1165.000000 15.509152
1166.000000 12.183981
1167.000000 23.298387
1168.000000 9.904118
1169.000000 9.963588
1170.000000 8.849156
1171.000000 8.859920
1172.000000 12.172356
1173.000000 14.459819
1174.000000 9.973839
1175.000000 7.688726
1176.000000 18.765285
1177.000000 5.577801
1178.000000 15.519511
1179.000000 12.166480
1180.000000 10.041136
1181.000000 14.409243
1182.000000 17.730760
1183.000000 15.577006
1184.000000 15.487686
1185.000000 5.546875
1186.000000 15.465137
1187.000000 15.449048
1188.000000 7.742058
1189.000000 14.350686
1190.000000 17.688458
1191.000000 13.331326
1192.000000 11.001093
1193.000000 7.694210
1194.000000 12.084266
1195.000000 7.765365
1196.000000 16.461175
1197.000000 10.023896
1198.000000 15.425755
1199.000000 5.558540
1200.000000 18.708747
1201.000000 12.174801
1202.000000 13.176808
1203.000000 14.443713
1204.000000 11.135574
1205.000000 16.676073
1206.000000 9.889802
1207.000000 14.378993
1208.000000 8.842290
1209.000000 14.382009
1210.000000 8.871130
1211.000000 13.243032
1212.000000 12.140933
1213.000000 8.873991
1214.000000 9.968806
1215.000000 14.385488
1216.000000 11.090286
1217.000000 9.876108
1218.000000 17.584669
1219.000000 9.944965
1220.000000 22.034729
1221.000000 7.724285
1222.000000 17.660280
1223.000000 11.074287
1224.000000 7.686413
1225.000000 9.982978
1226.000000 12.216208
1227.000000 15.635647
1228.000000 11.156576
1229.000000 11.108840
1230.000000 7.693999
1231.000000 11.108150
1232.000000 18.899446
1233.000000 11.110099
1234.000000 14.444617
1235.000000 12.131037
1236.000000 8.913411
1237.000000 8.839451
1238.000000 12.170755
1239.000000 11.023115
1240.000000 16.583434
1241.000000 12.091373
1242.000000 11.056085
1243.000000 15.429430
1244.000000 8.910361
1245.000000 6.641631
1246.000000 9.918368
1247.000000 12.321884
1248.000000 9.975385
1249.000000 16.648321
1250.000000 12.101671
1251.000000 20.971005
1252.000000 12.198628
1253.000000 11.102169
1254.000000 13.305830
1255.000000 13.392932
1256.000000 13.372335
1257.000000 11.035354
1258.000000 14.392707
1259.000000 15.442248
1260.000000 8.807856
1261.000000 15.457657
1262.000000 11.100048
1263.000000 14.344290
1264.000000 9.961768
1265.000000 12.105626
1266.000000 16.598164
1267.000000 14.281286
1268.000000 15.373116
1269.000000 14.315372
1270.000000 8.918447
1271.000000 9.924250
1272.000000 6.606772
1273.000000 10.998482
1274.000000 12.103802
1275.000000 17.668386
1276.000000 13.204452
1277.000000 9.976050
1278.000000 14.341936
1279.000000 13.289216
1280.000000 7.732474
1281.000000 9.970150
1282.000000 7.748547
1283.000000 11.087724
1284.000000 16.520524
1285.000000 11.086255
1286.000000 10.996297
1287.000000 14.466489
1288.000000 14.520766
1289.000000 10.008449
1290.000000 9.943857
1291.000000 12.221132
1292.000000 14.340021
1293.000000 12.226042
1294.000000 12.169579
1295.000000 17.645895
1296.000000 14.327580
1297.000000 8.813825
1298.000000 13.264344
1299.000000 17.745821
