# Left column = Time after Trigger in seconds & Right column = # Counts / Exposure = Flux per cm² s
700.000000 6.774467
701.000000 2.271354
702.000000 0.000000
703.000000 7.953338
704.000000 4.547051
705.000000 3.422816
706.000000 0.000000
707.000000 3.435758
708.000000 6.839363
709.000000 5.668229
710.000000 5.694990
711.000000 3.404490
712.000000 2.286249
713.000000 3.437408
714.000000 5.706540
715.000000 6.849497
716.000000 4.547127
717.000000 4.614597
718.000000 5.730622
719.000000 2.265871
720.000000 2.271395
721.000000 2.308673
722.000000 5.700573
723.000000 0.000000
724.000000 3.433612
725.000000 6.901828
726.000000 2.282616
727.000000 1.139132
728.000000 4.556813
729.000000 3.445411
730.000000 3.405810
731.000000 3.428273
732.000000 4.582066
733.000000 3.439511
734.000000 3.436921
735.000000 2.303156
736.000000 3.434055
737.000000 6.850963
738.000000 2.276643
739.000000 4.570399
740.000000 5.728628
741.000000 2.293969
742.000000 2.290644
743.000000 6.827347
744.000000 8.048911
745.000000 1.144350
746.000000 0.000000
747.000000 6.841599
748.000000 6.895877
749.000000 3.455496
750.000000 2.301229
751.000000 3.443312
752.000000 1.153016
753.000000 4.609942
754.000000 6.921517
755.000000 4.588326
756.000000 4.605101
757.000000 3.446100
758.000000 2.285770
759.000000 5.763304
760.000000 4.575699
761.000000 5.789182
762.000000 3.444458
763.000000 4.575313
764.000000 3.469275
765.000000 3.446458
766.000000 3.449522
767.000000 5.740487
768.000000 4.629731
769.000000 1.149870
770.000000 9.159231
771.000000 9.291731
772.000000 5.772625
773.000000 2.279226
774.000000 2.305277
775.000000 8.086885
776.000000 2.292290
777.000000 1.152779
778.000000 4.575921
779.000000 4.585901
780.000000 4.589624
781.000000 5.778134
782.000000 3.486614
783.000000 11.582685
784.000000 5.772562
785.000000 9.174318
786.000000 3.452413
787.000000 1.155925
788.000000 2.290756
789.000000 8.086236
790.000000 4.613226
791.000000 3.459338
792.000000 2.300307
793.000000 10.443202
794.000000 5.750829
795.000000 2.317179
796.000000 1.148866
797.000000 4.610478
798.000000 5.767750
799.000000 3.450081
800.000000 5.759491
801.000000 3.438037
802.000000 3.438082
803.000000 5.719574
804.000000 3.453437
805.000000 4.635987
806.000000 5.760257
807.000000 3.442027
808.000000 5.767359
809.000000 5.739364
810.000000 4.597155
811.000000 2.300534
812.000000 4.629486
813.000000 5.730109
814.000000 4.609647
815.000000 6.877973
816.000000 8.089472
817.000000 3.485946
818.000000 5.785351
819.000000 4.604904
820.000000 6.880284
821.000000 8.058066
822.000000 9.185310
823.000000 3.489040
824.000000 9.242700
825.000000 4.595791
826.000000 3.476225
827.000000 6.923560
828.000000 8.089801
829.000000 8.134936
830.000000 1.160377
831.000000 8.049156
832.000000 5.794599
833.000000 9.302402
834.000000 2.304117
835.000000 5.772817
836.000000 4.610774
837.000000 9.274894
838.000000 3.464330
839.000000 6.945244
840.000000 1.162640
841.000000 3.490115
842.000000 4.670560
843.000000 4.653917
844.000000 4.654764
845.000000 3.460587
846.000000 4.641245
847.000000 4.655081
848.000000 9.252725
849.000000 6.973163
850.000000 5.783248
851.000000 3.462796
852.000000 3.446608
853.000000 5.794853
854.000000 4.609875
855.000000 6.931311
856.000000 4.624051
857.000000 5.752436
858.000000 6.947409
859.000000 4.573845
860.000000 5.737134
861.000000 2.316389
862.000000 2.326574
863.000000 2.320164
864.000000 6.907648
865.000000 4.615675
866.000000 6.883833
867.000000 6.951312
868.000000 5.804321
869.000000 9.282212
870.000000 8.046353
871.000000 3.466630
872.000000 2.317185
873.000000 8.093178
874.000000 5.742135
875.000000 4.649227
876.000000 9.334197
877.000000 2.315781
878.000000 9.314140
879.000000 1.152920
880.000000 13.986763
881.000000 9.240501
882.000000 5.821614
883.000000 8.164150
884.000000 3.504516
885.000000 5.792257
886.000000 10.355795
887.000000 8.176569
888.000000 5.781397
889.000000 6.939500
890.000000 4.631664
891.000000 6.948504
892.000000 6.960130
893.000000 1.153248
894.000000 4.671261
895.000000 4.692863
896.000000 5.808782
897.000000 4.605841
898.000000 2.316449
899.000000 7.037435
900.000000 4.638316
901.000000 12.755323
902.000000 4.629289
903.000000 4.625333
904.000000 10.442142
905.000000 8.108876
906.000000 3.469010
907.000000 4.619132
908.000000 6.975716
909.000000 5.763504
910.000000 8.170361
911.000000 4.648173
912.000000 3.487556
913.000000 5.798422
914.000000 3.454553
915.000000 9.282465
916.000000 8.144024
917.000000 5.827725
918.000000 5.824872
919.000000 5.814990
920.000000 8.077011
921.000000 5.794473
922.000000 6.959104
923.000000 4.652364
924.000000 2.337149
925.000000 4.640364
926.000000 2.330249
927.000000 4.661730
928.000000 5.797587
929.000000 5.851089
930.000000 10.514645
931.000000 4.672746
932.000000 3.465146
933.000000 6.944695
934.000000 3.486349
935.000000 6.974727
936.000000 5.805437
937.000000 4.611431
938.000000 6.982370
939.000000 4.626317
940.000000 4.666578
941.000000 6.935306
942.000000 5.832031
943.000000 12.757074
944.000000 10.394044
945.000000 7.015114
946.000000 3.451916
947.000000 8.135434
948.000000 4.594903
949.000000 8.073257
950.000000 5.777893
951.000000 5.793749
952.000000 2.322621
953.000000 5.807400
954.000000 3.499146
955.000000 5.825426
956.000000 2.325557
957.000000 9.333919
958.000000 3.510936
959.000000 4.673500
960.000000 11.686780
961.000000 6.968986
962.000000 4.619945
963.000000 2.329722
964.000000 9.279826
965.000000 5.807837
966.000000 4.658092
967.000000 2.353204
968.000000 5.808894
969.000000 8.111810
970.000000 5.824830
971.000000 9.268991
972.000000 5.762785
973.000000 4.655577
974.000000 8.168354
975.000000 10.386820
976.000000 10.358677
977.000000 9.274822
978.000000 8.132768
979.000000 10.405976
980.000000 5.803848
981.000000 6.913467
982.000000 13.922645
983.000000 10.551968
984.000000 9.302510
985.000000 5.818161
986.000000 5.819050
987.000000 2.334969
988.000000 4.655048
989.000000 8.095820
990.000000 5.843286
991.000000 8.159679
992.000000 5.820459
993.000000 12.794134
994.000000 9.231619
995.000000 8.210344
996.000000 7.017901
997.000000 10.464221
998.000000 4.650229
999.000000 11.594909
1000.000000 41.009674
1001.000000 12.845047
1002.000000 9.362091
1003.000000 8.178715
1004.000000 3.463779
1005.000000 9.238675
1006.000000 3.481245
1007.000000 10.488893
1008.000000 3.491140
1009.000000 8.140995
1010.000000 2.312435
1011.000000 6.945318
1012.000000 15.162308
1013.000000 10.429604
1014.000000 5.809534
1015.000000 6.929833
1016.000000 6.941747
1017.000000 10.456165
1018.000000 9.209906
1019.000000 6.892169
1020.000000 1.161815
1021.000000 5.786282
1022.000000 6.944658
1023.000000 2.333489
1024.000000 4.651356
1025.000000 6.952713
1026.000000 12.738216
1027.000000 3.464140
1028.000000 9.251422
1029.000000 6.956042
1030.000000 5.767333
1031.000000 3.486596
1032.000000 11.605496
1033.000000 8.088899
1034.000000 12.840910
1035.000000 10.464964
1036.000000 2.328474
1037.000000 8.103454
1038.000000 8.077606
1039.000000 7.013108
1040.000000 8.137988
1041.000000 3.456387
1042.000000 13.921873
1043.000000 2.328771
1044.000000 8.071502
1045.000000 8.096378
1046.000000 15.012158
1047.000000 9.373363
1048.000000 5.831329
1049.000000 11.643444
1050.000000 2.339064
1051.000000 3.498391
1052.000000 9.292332
1053.000000 4.620921
1054.000000 4.624824
1055.000000 6.953055
1056.000000 8.107506
1057.000000 4.680845
1058.000000 10.357221
1059.000000 4.616865
1060.000000 8.037347
1061.000000 4.665302
1062.000000 9.160255
1063.000000 6.929516
1064.000000 8.108820
1065.000000 9.337286
1066.000000 8.175454
1067.000000 5.815787
1068.000000 6.948224
1069.000000 4.615502
1070.000000 9.295252
1071.000000 3.460460
1072.000000 11.540808
1073.000000 12.857839
1074.000000 9.346742
1075.000000 8.107303
1076.000000 6.997788
1077.000000 5.765260
1078.000000 10.438042
1079.000000 6.919768
1080.000000 6.924235
1081.000000 2.307358
1082.000000 11.523646
1083.000000 8.163209
1084.000000 6.921778
1085.000000 6.953828
1086.000000 3.481545
1087.000000 5.773264
1088.000000 4.580852
1089.000000 4.598748
1090.000000 1.144710
1091.000000 4.658291
1092.000000 6.903450
1093.000000 6.917788
1094.000000 3.472753
1095.000000 14.001096
1096.000000 9.275824
1097.000000 5.727417
1098.000000 9.245813
1099.000000 4.603756
1100.000000 8.124205
1101.000000 8.132906
1102.000000 6.962490
1103.000000 10.409334
1104.000000 5.737048
1105.000000 9.228714
1106.000000 3.440440
1107.000000 6.943893
1108.000000 4.632649
1109.000000 10.510937
1110.000000 6.929072
1111.000000 6.923493
1112.000000 7.970635
1113.000000 12.720008
1114.000000 10.403884
1115.000000 10.365907
1116.000000 4.615788
1117.000000 8.046161
1118.000000 3.467334
1119.000000 3.465722
1120.000000 4.618185
1121.000000 5.716572
1122.000000 11.565310
1123.000000 6.928186
1124.000000 4.587987
1125.000000 10.347217
1126.000000 5.720706
1127.000000 9.233196
1128.000000 8.013527
1129.000000 8.066187
1130.000000 5.723305
1131.000000 12.645833
1132.000000 9.179096
1133.000000 9.168206
1134.000000 9.137938
1135.000000 9.102712
1136.000000 4.617412
1137.000000 5.727992
1138.000000 8.053805
1139.000000 4.589906
1140.000000 6.915523
1141.000000 12.675675
1142.000000 3.451728
1143.000000 6.818078
1144.000000 12.701876
1145.000000 9.124414
1146.000000 2.296070
1147.000000 11.597203
1148.000000 4.597758
1149.000000 10.312764
1150.000000 11.581810
1151.000000 2.280630
1152.000000 12.606608
1153.000000 8.063979
1154.000000 11.469773
1155.000000 11.435762
1156.000000 5.713910
1157.000000 4.599358
1158.000000 5.749897
1159.000000 10.331357
1160.000000 4.617528
1161.000000 9.223347
1162.000000 6.914340
1163.000000 9.206276
1164.000000 4.614709
1165.000000 11.472116
1166.000000 10.301226
1167.000000 9.210559
1168.000000 9.144355
1169.000000 4.634052
1170.000000 4.593033
1171.000000 7.988931
1172.000000 8.011128
1173.000000 4.589256
1174.000000 6.854017
1175.000000 8.012536
1176.000000 4.541535
1177.000000 5.699866
1178.000000 9.113745
1179.000000 5.714373
1180.000000 6.813091
1181.000000 4.577651
1182.000000 6.889082
1183.000000 5.692512
1184.000000 8.089192
1185.000000 13.783315
1186.000000 16.196921
1187.000000 6.894551
1188.000000 13.812833
1189.000000 3.431246
1190.000000 8.040178
1191.000000 9.162317
1192.000000 4.601173
1193.000000 4.599560
1194.000000 9.146594
1195.000000 8.062921
1196.000000 7.986389
1197.000000 9.180465
1198.000000 7.998354
1199.000000 9.147629
1200.000000 6.882855
1201.000000 13.679026
1202.000000 6.864241
1203.000000 7.913312
1204.000000 10.360854
1205.000000 11.407984
1206.000000 14.844924
1207.000000 5.724074
1208.000000 14.785071
1209.000000 11.402792
1210.000000 1.141222
1211.000000 11.376688
1212.000000 8.025961
1213.000000 10.250554
1214.000000 7.995504
1215.000000 3.401917
1216.000000 8.010558
1217.000000 7.986623
1218.000000 6.850057
1219.000000 14.712226
1220.000000 8.008091
1221.000000 6.875379
1222.000000 6.859793
1223.000000 9.162829
1224.000000 4.563704
1225.000000 10.295868
1226.000000 6.835427
1227.000000 13.624741
1228.000000 2.267126
1229.000000 9.094859
1230.000000 7.936535
1231.000000 11.362517
1232.000000 10.175570
1233.000000 10.199867
1234.000000 9.061414
1235.000000 4.529627
1236.000000 6.785315
1237.000000 9.049012
1238.000000 7.942997
1239.000000 4.545154
1240.000000 9.071456
1241.000000 6.801578
1242.000000 7.918774
1243.000000 9.170591
1244.000000 5.665559
1245.000000 5.684726
1246.000000 7.917268
1247.000000 6.778140
1248.000000 6.800440
1249.000000 5.691434
1250.000000 13.708779
1251.000000 10.242006
1252.000000 6.806832
1253.000000 9.145868
1254.000000 10.181287
1255.000000 7.918608
1256.000000 5.723296
1257.000000 2.267408
1258.000000 6.782994
1259.000000 7.993605
1260.000000 13.608426
1261.000000 3.391426
1262.000000 4.529920
1263.000000 10.252278
1264.000000 7.946584
1265.000000 11.353742
1266.000000 5.667546
1267.000000 5.665766
1268.000000 6.796903
1269.000000 6.765470
1270.000000 6.726201
1271.000000 6.764802
1272.000000 10.160704
1273.000000 4.505094
1274.000000 3.397108
1275.000000 6.767275
1276.000000 13.550006
1277.000000 1.130050
1278.000000 5.643926
1279.000000 6.765481
1280.000000 7.969358
1281.000000 6.783316
1282.000000 6.797349
1283.000000 7.909763
1284.000000 7.849881
1285.000000 7.932773
1286.000000 9.091175
1287.000000 6.785207
1288.000000 2.254111
1289.000000 10.143109
1290.000000 12.482842
1291.000000 12.457517
1292.000000 11.223351
1293.000000 6.768556
1294.000000 6.797563
1295.000000 7.840782
1296.000000 11.257628
1297.000000 13.605161
1298.000000 3.385425
1299.000000 10.105603
