# Left column = Time after Trigger in seconds & Right column = # Counts / Exposure = Flux per cm² s
700.000000 7.501954
701.000000 3.226483
702.000000 14.008544
703.000000 7.548373
704.000000 6.455298
705.000000 7.527455
706.000000 2.160454
707.000000 6.476029
708.000000 6.481920
709.000000 15.070989
710.000000 11.968007
711.000000 11.824628
712.000000 9.732210
713.000000 11.829374
714.000000 7.562151
715.000000 5.395694
716.000000 9.739841
717.000000 7.596732
718.000000 10.775344
719.000000 6.500450
720.000000 7.577238
721.000000 4.312929
722.000000 7.536610
723.000000 9.754618
724.000000 7.570723
725.000000 4.299997
726.000000 14.099738
727.000000 4.308433
728.000000 7.605649
729.000000 7.538292
730.000000 6.472040
731.000000 11.915384
732.000000 7.574376
733.000000 7.586894
734.000000 8.604028
735.000000 9.821113
736.000000 5.393448
737.000000 5.430783
738.000000 8.646392
739.000000 7.614312
740.000000 5.382920
741.000000 9.688212
742.000000 8.665163
743.000000 4.317109
744.000000 11.807722
745.000000 14.007685
746.000000 8.705927
747.000000 9.725330
748.000000 9.710614
749.000000 11.914286
750.000000 9.711894
751.000000 10.834274
752.000000 9.731661
753.000000 7.535856
754.000000 6.520765
755.000000 9.731780
756.000000 8.609796
757.000000 8.638625
758.000000 8.695133
759.000000 7.528482
760.000000 9.724837
761.000000 12.967908
762.000000 10.744050
763.000000 8.661232
764.000000 8.680189
765.000000 10.809466
766.000000 8.641149
767.000000 9.767359
768.000000 5.444692
769.000000 3.266235
770.000000 9.785805
771.000000 3.244186
772.000000 8.619693
773.000000 6.474165
774.000000 7.575995
775.000000 4.329165
776.000000 7.580543
777.000000 9.688294
778.000000 5.427717
779.000000 11.837079
780.000000 16.351286
781.000000 9.763281
782.000000 6.494974
783.000000 6.463633
784.000000 5.430979
785.000000 7.504075
786.000000 11.897301
787.000000 12.907476
788.000000 7.571133
789.000000 8.667684
790.000000 3.220696
791.000000 8.633821
792.000000 9.705406
793.000000 9.710017
794.000000 12.883975
795.000000 9.680384
796.000000 7.564386
797.000000 9.767177
798.000000 8.595008
799.000000 9.713055
800.000000 4.365434
801.000000 4.325595
802.000000 6.520908
803.000000 7.536564
804.000000 10.802422
805.000000 7.531999
806.000000 8.650842
807.000000 9.770476
808.000000 4.312857
809.000000 6.504528
810.000000 6.542611
811.000000 10.786852
812.000000 10.805921
813.000000 4.323275
814.000000 12.876352
815.000000 14.055787
816.000000 5.374576
817.000000 6.501466
818.000000 3.238054
819.000000 5.385635
820.000000 10.876490
821.000000 5.424071
822.000000 9.760990
823.000000 9.709256
824.000000 5.448502
825.000000 13.055571
826.000000 7.563750
827.000000 7.554854
828.000000 8.629621
829.000000 6.480325
830.000000 11.792130
831.000000 2.159361
832.000000 6.478623
833.000000 8.688796
834.000000 7.541142
835.000000 10.808331
836.000000 1.076807
837.000000 13.048902
838.000000 2.161846
839.000000 5.394228
840.000000 7.594726
841.000000 7.605474
842.000000 6.475031
843.000000 5.447590
844.000000 5.406289
845.000000 14.021127
846.000000 6.493448
847.000000 5.389954
848.000000 4.305278
849.000000 5.376780
850.000000 2.157226
851.000000 3.214083
852.000000 4.334707
853.000000 9.724419
854.000000 11.928146
855.000000 8.643703
856.000000 7.530986
857.000000 12.855899
858.000000 8.664701
859.000000 11.951270
860.000000 5.383973
861.000000 11.970678
862.000000 6.466869
863.000000 8.621498
864.000000 8.628903
865.000000 7.585824
866.000000 8.664556
867.000000 10.844441
868.000000 16.224985
869.000000 6.445807
870.000000 5.382489
871.000000 7.542539
872.000000 7.547410
873.000000 6.497793
874.000000 3.213584
875.000000 7.609130
876.000000 6.452772
877.000000 9.729258
878.000000 7.581627
879.000000 14.139438
880.000000 8.613215
881.000000 3.228351
882.000000 9.715727
883.000000 5.429762
884.000000 6.493751
885.000000 5.377521
886.000000 9.709089
887.000000 8.663002
888.000000 11.873676
889.000000 6.511100
890.000000 8.608327
891.000000 9.603736
892.000000 8.659941
893.000000 8.621029
894.000000 8.600525
895.000000 9.671573
896.000000 6.478187
897.000000 7.569375
898.000000 8.629028
899.000000 7.584025
900.000000 6.456830
901.000000 6.423311
902.000000 4.307532
903.000000 9.720005
904.000000 6.504229
905.000000 7.616880
906.000000 6.490635
907.000000 8.590695
908.000000 11.883207
909.000000 3.231033
910.000000 5.423858
911.000000 5.444430
912.000000 7.544573
913.000000 5.369090
914.000000 11.917385
915.000000 8.622497
916.000000 5.395800
917.000000 5.416467
918.000000 4.315049
919.000000 4.316521
920.000000 2.160933
921.000000 8.614174
922.000000 10.847697
923.000000 7.581887
924.000000 5.385031
925.000000 4.331575
926.000000 7.553907
927.000000 7.527106
928.000000 11.846835
929.000000 7.569250
930.000000 6.463301
931.000000 7.564313
932.000000 9.663004
933.000000 8.593353
934.000000 4.339089
935.000000 7.514297
936.000000 12.953828
937.000000 8.615458
938.000000 5.394955
939.000000 8.664121
940.000000 8.618780
941.000000 7.514841
942.000000 7.536161
943.000000 12.957652
944.000000 7.563060
945.000000 8.720796
946.000000 9.793505
947.000000 10.782756
948.000000 5.412572
949.000000 10.770538
950.000000 3.242073
951.000000 5.399949
952.000000 6.459387
953.000000 8.737830
954.000000 7.594183
955.000000 8.648627
956.000000 6.523964
957.000000 8.622608
958.000000 6.486466
959.000000 6.515090
960.000000 8.621904
961.000000 6.511099
962.000000 8.683987
963.000000 2.158432
964.000000 1.076114
965.000000 7.541868
966.000000 4.304161
967.000000 5.391102
968.000000 8.628059
969.000000 10.732192
970.000000 9.763763
971.000000 1.081184
972.000000 3.236632
973.000000 8.648681
974.000000 12.923128
975.000000 7.577769
976.000000 8.644995
977.000000 7.597103
978.000000 3.242320
979.000000 6.467262
980.000000 6.454386
981.000000 6.483765
982.000000 9.688733
983.000000 1.083686
984.000000 4.322874
985.000000 5.427942
986.000000 10.802972
987.000000 3.244104
988.000000 7.607311
989.000000 8.671785
990.000000 2.164014
991.000000 7.593396
992.000000 3.245012
993.000000 3.259497
994.000000 5.356146
995.000000 5.446380
996.000000 5.397904
997.000000 14.088999
998.000000 4.347525
999.000000 190.429806
1000.000000 437.176107
1001.000000 82.082221
1002.000000 25.958549
1003.000000 19.493085
1004.000000 20.524126
1005.000000 11.884042
1006.000000 6.447473
1007.000000 9.756459
1008.000000 12.985022
1009.000000 6.467839
1010.000000 9.713564
1011.000000 6.465071
1012.000000 4.318076
1013.000000 7.531385
1014.000000 8.640858
1015.000000 7.624156
1016.000000 4.300939
1017.000000 10.879264
1018.000000 13.971420
1019.000000 9.729775
1020.000000 5.387405
1021.000000 13.017885
1022.000000 10.857462
1023.000000 7.556721
1024.000000 6.493243
1025.000000 8.676337
1026.000000 5.424713
1027.000000 10.888335
1028.000000 7.579972
1029.000000 5.411868
1030.000000 9.726336
1031.000000 10.776737
1032.000000 8.643801
1033.000000 6.442453
1034.000000 7.631746
1035.000000 6.478332
1036.000000 6.489259
1037.000000 5.396406
1038.000000 5.380159
1039.000000 6.508656
1040.000000 5.411778
1041.000000 10.843728
1042.000000 7.556459
1043.000000 5.390365
1044.000000 4.310126
1045.000000 4.343342
1046.000000 8.633838
1047.000000 7.578406
1048.000000 5.393678
1049.000000 5.400803
1050.000000 11.899093
1051.000000 10.754981
1052.000000 10.741533
1053.000000 4.336290
1054.000000 8.670908
1055.000000 12.860804
1056.000000 8.656858
1057.000000 7.585022
1058.000000 4.342752
1059.000000 3.258287
1060.000000 8.731985
1061.000000 2.161828
1062.000000 3.238751
1063.000000 6.463201
1064.000000 8.673041
1065.000000 10.834261
1066.000000 5.369256
1067.000000 2.172922
1068.000000 7.511804
1069.000000 3.245991
1070.000000 9.697401
1071.000000 4.316414
1072.000000 5.407077
1073.000000 8.713580
1074.000000 8.767924
1075.000000 8.645553
1076.000000 5.418085
1077.000000 5.401001
1078.000000 9.800870
1079.000000 8.685139
1080.000000 8.661934
1081.000000 8.621504
1082.000000 6.533855
1083.000000 1.083750
1084.000000 10.858961
1085.000000 17.282105
1086.000000 7.613503
1087.000000 4.354151
1088.000000 6.517621
1089.000000 8.632588
1090.000000 5.418899
1091.000000 6.490216
1092.000000 3.269344
1093.000000 5.416591
1094.000000 4.354178
1095.000000 6.518545
1096.000000 1.084595
1097.000000 7.533705
1098.000000 4.341627
1099.000000 3.234722
1100.000000 7.640648
1101.000000 4.334021
1102.000000 2.166345
1103.000000 5.431148
1104.000000 8.660744
1105.000000 5.444471
1106.000000 7.586686
1107.000000 6.517518
1108.000000 6.480714
1109.000000 6.479291
1110.000000 6.494625
1111.000000 6.516946
1112.000000 4.363481
1113.000000 7.681713
1114.000000 6.541948
1115.000000 5.453450
1116.000000 6.544505
1117.000000 6.485275
1118.000000 11.988840
1119.000000 6.523491
1120.000000 10.803394
1121.000000 6.480655
1122.000000 5.414305
1123.000000 4.361903
1124.000000 2.189746
1125.000000 8.661768
1126.000000 9.813001
1127.000000 7.682142
1128.000000 6.509752
1129.000000 7.638751
1130.000000 4.349365
1131.000000 4.334618
1132.000000 7.597315
1133.000000 4.384362
1134.000000 7.682277
1135.000000 2.185356
1136.000000 4.363731
1137.000000 4.365274
1138.000000 2.187014
1139.000000 3.262016
1140.000000 3.266130
1141.000000 10.853616
1142.000000 7.609967
1143.000000 8.758047
1144.000000 4.369184
1145.000000 7.615336
1146.000000 8.704849
1147.000000 5.443889
1148.000000 2.175958
1149.000000 5.444360
1150.000000 7.628314
1151.000000 8.842689
1152.000000 4.359425
1153.000000 8.754156
1154.000000 4.375876
1155.000000 6.617781
1156.000000 5.433787
1157.000000 7.643205
1158.000000 5.459764
1159.000000 10.992073
1160.000000 6.553195
1161.000000 8.749849
1162.000000 9.897863
1163.000000 6.575667
1164.000000 4.377991
1165.000000 7.619664
1166.000000 6.523964
1167.000000 5.450530
1168.000000 5.468205
1169.000000 5.456222
1170.000000 6.547691
1171.000000 4.347452
1172.000000 7.624693
1173.000000 5.482915
1174.000000 4.376325
1175.000000 7.657569
1176.000000 5.489259
1177.000000 6.537732
1178.000000 5.457099
1179.000000 8.770868
1180.000000 4.374577
1181.000000 3.284141
1182.000000 9.916015
1183.000000 6.589882
1184.000000 9.894087
1185.000000 6.524801
1186.000000 3.270384
1187.000000 8.766362
1188.000000 4.373586
1189.000000 2.188112
1190.000000 3.300714
1191.000000 5.508341
1192.000000 6.544395
1193.000000 13.115888
1194.000000 5.471828
1195.000000 5.457082
1196.000000 10.975538
1197.000000 5.486371
1198.000000 6.602627
1199.000000 9.822509
1200.000000 8.740216
1201.000000 10.944601
1202.000000 3.283015
1203.000000 8.816173
1204.000000 2.189879
1205.000000 5.487951
1206.000000 6.597485
1207.000000 1.102568
1208.000000 7.700687
1209.000000 6.591960
1210.000000 9.886993
1211.000000 4.382908
1212.000000 3.294514
1213.000000 6.560325
1214.000000 7.641735
1215.000000 8.762658
1216.000000 7.685329
1217.000000 8.773446
1218.000000 8.855419
1219.000000 6.644804
1220.000000 8.871517
1221.000000 3.307946
1222.000000 4.397193
1223.000000 7.721319
1224.000000 5.476719
1225.000000 5.499440
1226.000000 11.006359
1227.000000 9.993386
1228.000000 2.211210
1229.000000 4.407120
1230.000000 5.468340
1231.000000 6.593454
1232.000000 8.849861
1233.000000 6.557683
1234.000000 8.751497
1235.000000 8.725676
1236.000000 4.367543
1237.000000 5.461513
1238.000000 3.296606
1239.000000 1.108704
1240.000000 3.301787
1241.000000 5.486183
1242.000000 6.637485
1243.000000 5.493270
1244.000000 5.489561
1245.000000 8.902813
1246.000000 4.380494
1247.000000 11.018482
1248.000000 2.216856
1249.000000 4.423416
1250.000000 2.222559
1251.000000 5.511762
1252.000000 2.193377
1253.000000 6.614058
1254.000000 2.221503
1255.000000 9.939153
1256.000000 8.864845
1257.000000 12.097244
1258.000000 5.474751
1259.000000 2.200610
1260.000000 5.425538
1261.000000 5.455817
1262.000000 9.941524
1263.000000 6.513663
1264.000000 3.304222
1265.000000 4.397578
1266.000000 5.506475
1267.000000 4.385609
1268.000000 7.715092
1269.000000 9.833023
1270.000000 5.513440
1271.000000 5.522841
1272.000000 12.106225
1273.000000 4.446764
1274.000000 8.789283
1275.000000 5.467544
1276.000000 3.324163
1277.000000 2.224998
1278.000000 5.465896
1279.000000 2.207809
1280.000000 4.440119
1281.000000 6.604744
1282.000000 5.548304
1283.000000 7.720699
1284.000000 6.584668
1285.000000 0.000000
1286.000000 5.507939
1287.000000 5.502618
1288.000000 4.419067
1289.000000 2.219390
1290.000000 5.475474
1291.000000 7.695663
1292.000000 2.198926
1293.000000 1.111159
1294.000000 5.484529
1295.000000 6.593138
1296.000000 4.395719
1297.000000 6.628518
1298.000000 7.696911
1299.000000 5.474036
