# Left column = Time after Trigger in seconds & Right column = # Counts / Exposure = Flux per cm² s
700.000000 10.881282
701.000000 5.434172
702.000000 15.220197
703.000000 8.698770
704.000000 9.721157
705.000000 14.124172
706.000000 9.759230
707.000000 10.838330
708.000000 5.403162
709.000000 8.680927
710.000000 9.772118
711.000000 10.783206
712.000000 11.870867
713.000000 4.300833
714.000000 15.034814
715.000000 8.679252
716.000000 9.778057
717.000000 5.471895
718.000000 9.854203
719.000000 5.425158
720.000000 10.898825
721.000000 10.855084
722.000000 5.448009
723.000000 7.576395
724.000000 9.745019
725.000000 16.220797
726.000000 14.037444
727.000000 4.320340
728.000000 9.748910
729.000000 8.628234
730.000000 9.799890
731.000000 6.463787
732.000000 14.027245
733.000000 16.395931
734.000000 7.585158
735.000000 15.257845
736.000000 13.030110
737.000000 19.548242
738.000000 14.015997
739.000000 6.514557
740.000000 10.921946
741.000000 9.741982
742.000000 11.900581
743.000000 17.418545
744.000000 8.627092
745.000000 8.663190
746.000000 14.047806
747.000000 9.845638
748.000000 9.694989
749.000000 9.803532
750.000000 13.029013
751.000000 13.018101
752.000000 13.979811
753.000000 4.346760
754.000000 13.079166
755.000000 15.202478
756.000000 8.700572
757.000000 14.065069
758.000000 9.709084
759.000000 17.388841
760.000000 5.463271
761.000000 4.355803
762.000000 6.549098
763.000000 11.900268
764.000000 8.707581
765.000000 6.522117
766.000000 12.019029
767.000000 7.563679
768.000000 15.231554
769.000000 16.258822
770.000000 14.150789
771.000000 9.795844
772.000000 6.508765
773.000000 14.117445
774.000000 8.690192
775.000000 11.819629
776.000000 20.698901
777.000000 8.677508
778.000000 11.946529
779.000000 17.365383
780.000000 17.422436
781.000000 9.731295
782.000000 4.335264
783.000000 8.684173
784.000000 19.466477
785.000000 9.745589
786.000000 4.351694
787.000000 10.856179
788.000000 5.409435
789.000000 10.836076
790.000000 10.789904
791.000000 10.832665
792.000000 20.594576
793.000000 5.405250
794.000000 16.362242
795.000000 10.867939
796.000000 11.909854
797.000000 7.540210
798.000000 6.498332
799.000000 8.756520
800.000000 10.832713
801.000000 9.767058
802.000000 9.813928
803.000000 15.216055
804.000000 11.938581
805.000000 6.449604
806.000000 11.944376
807.000000 13.011290
808.000000 6.603460
809.000000 7.594075
810.000000 7.585409
811.000000 7.583072
812.000000 18.501289
813.000000 6.510144
814.000000 14.093440
815.000000 5.401513
816.000000 14.116467
817.000000 9.770106
818.000000 14.109980
819.000000 14.015617
820.000000 11.907276
821.000000 10.835310
822.000000 11.910246
823.000000 15.222215
824.000000 10.826781
825.000000 17.344089
826.000000 4.305958
827.000000 8.681647
828.000000 14.110282
829.000000 10.877335
830.000000 17.403899
831.000000 12.996250
832.000000 17.274885
833.000000 8.686498
834.000000 8.659023
835.000000 10.777314
836.000000 7.577838
837.000000 9.748472
838.000000 9.703056
839.000000 11.879259
840.000000 8.644074
841.000000 14.149262
842.000000 11.940099
843.000000 8.653115
844.000000 7.626105
845.000000 12.905163
846.000000 13.061693
847.000000 11.982096
848.000000 7.605549
849.000000 11.857851
850.000000 6.538312
851.000000 8.637430
852.000000 12.941430
853.000000 9.728426
854.000000 15.148373
855.000000 10.900653
856.000000 8.703715
857.000000 16.234208
858.000000 15.233930
859.000000 7.604744
860.000000 12.944466
861.000000 8.655515
862.000000 7.560721
863.000000 9.787425
864.000000 8.626274
865.000000 10.814262
866.000000 14.178797
867.000000 11.996486
868.000000 5.407592
869.000000 16.205458
870.000000 12.996369
871.000000 9.738502
872.000000 9.718494
873.000000 5.420285
874.000000 5.448390
875.000000 10.865441
876.000000 14.111127
877.000000 14.157962
878.000000 6.507271
879.000000 11.885515
880.000000 12.992796
881.000000 5.427300
882.000000 7.581241
883.000000 6.534827
884.000000 13.026731
885.000000 9.750949
886.000000 9.766172
887.000000 9.770160
888.000000 15.077655
889.000000 8.677883
890.000000 18.474022
891.000000 14.007080
892.000000 18.314101
893.000000 18.416389
894.000000 15.205705
895.000000 11.974862
896.000000 8.645140
897.000000 6.506869
898.000000 7.597522
899.000000 10.872562
900.000000 5.444223
901.000000 6.515506
902.000000 18.486096
903.000000 13.095007
904.000000 13.134715
905.000000 10.875304
906.000000 5.372067
907.000000 6.548361
908.000000 14.114090
909.000000 12.930975
910.000000 8.668573
911.000000 9.796100
912.000000 11.965817
913.000000 11.858309
914.000000 11.845878
915.000000 10.755210
916.000000 10.852134
917.000000 7.554374
918.000000 14.055806
919.000000 7.606197
920.000000 14.062782
921.000000 8.679134
922.000000 10.803107
923.000000 6.500156
924.000000 7.585895
925.000000 4.354977
926.000000 12.004795
927.000000 8.718576
928.000000 11.968578
929.000000 10.872099
930.000000 9.754302
931.000000 9.758911
932.000000 7.553262
933.000000 10.832295
934.000000 5.392332
935.000000 6.538159
936.000000 10.841874
937.000000 8.647631
938.000000 9.790586
939.000000 3.253941
940.000000 7.575068
941.000000 14.064116
942.000000 14.006901
943.000000 8.660715
944.000000 16.257205
945.000000 7.572775
946.000000 11.987526
947.000000 13.045340
948.000000 5.409754
949.000000 11.945189
950.000000 6.509731
951.000000 12.978039
952.000000 6.498775
953.000000 11.875578
954.000000 6.479638
955.000000 14.036233
956.000000 10.800920
957.000000 19.508434
958.000000 11.942587
959.000000 13.030174
960.000000 7.656663
961.000000 10.826772
962.000000 10.798705
963.000000 10.910293
964.000000 11.903183
965.000000 15.217623
966.000000 8.693918
967.000000 9.725742
968.000000 13.063316
969.000000 12.996456
970.000000 6.512954
971.000000 15.145286
972.000000 7.588837
973.000000 7.674801
974.000000 8.678537
975.000000 9.796599
976.000000 7.590363
977.000000 19.521737
978.000000 14.034279
979.000000 11.879877
980.000000 6.505082
981.000000 7.520322
982.000000 13.024013
983.000000 14.096534
984.000000 5.413347
985.000000 8.724594
986.000000 11.895133
987.000000 15.138042
988.000000 10.832023
989.000000 9.740066
990.000000 8.598444
991.000000 11.866411
992.000000 5.429797
993.000000 8.704622
994.000000 4.314980
995.000000 9.742882
996.000000 10.860206
997.000000 15.123424
998.000000 3.256574
999.000000 12.993561
1000.000000 21.732831
1001.000000 21.657575
1002.000000 15.265618
1003.000000 22.766593
1004.000000 15.192223
1005.000000 15.172262
1006.000000 47.698088
1007.000000 118.593973
1008.000000 137.497318
1009.000000 135.093833
1010.000000 100.151058
1011.000000 89.155744
1012.000000 70.502398
1013.000000 44.029158
1014.000000 56.474173
1015.000000 84.881980
1016.000000 61.112477
1017.000000 47.653349
1018.000000 29.428133
1019.000000 34.662745
1020.000000 34.892194
1021.000000 26.115001
1022.000000 32.425441
1023.000000 31.470580
1024.000000 27.262004
1025.000000 25.022120
1026.000000 31.609138
1027.000000 26.067649
1028.000000 30.403890
1029.000000 25.105916
1030.000000 22.848500
1031.000000 29.301079
1032.000000 12.949539
1033.000000 22.868974
1034.000000 26.022794
1035.000000 13.016520
1036.000000 16.333421
1037.000000 26.919976
1038.000000 22.868058
1039.000000 18.473523
1040.000000 19.488316
1041.000000 18.457971
1042.000000 16.369278
1043.000000 15.118673
1044.000000 18.491071
1045.000000 19.379427
1046.000000 17.425206
1047.000000 17.450119
1048.000000 20.615016
1049.000000 21.801874
1050.000000 14.044835
1051.000000 11.902833
1052.000000 13.071474
1053.000000 13.042348
1054.000000 14.125254
1055.000000 10.800866
1056.000000 10.904976
1057.000000 9.742766
1058.000000 20.551728
1059.000000 9.741744
1060.000000 13.048919
1061.000000 16.009153
1062.000000 9.782569
1063.000000 9.707907
1064.000000 18.353261
1065.000000 28.179174
1066.000000 10.882219
1067.000000 11.945870
1068.000000 19.526878
1069.000000 13.019820
1070.000000 10.832092
1071.000000 20.567715
1072.000000 14.050120
1073.000000 17.221311
1074.000000 16.185802
1075.000000 15.038942
1076.000000 11.918127
1077.000000 17.341813
1078.000000 14.091162
1079.000000 20.510627
1080.000000 10.784544
1081.000000 11.885807
1082.000000 9.684092
1083.000000 16.079520
1084.000000 14.059201
1085.000000 11.993785
1086.000000 19.464234
1087.000000 17.320720
1088.000000 15.147631
1089.000000 8.627805
1090.000000 16.114385
1091.000000 9.704327
1092.000000 12.859738
1093.000000 3.233704
1094.000000 11.892365
1095.000000 11.876998
1096.000000 8.591132
1097.000000 15.152818
1098.000000 16.211286
1099.000000 16.265597
1100.000000 16.237285
1101.000000 15.223348
1102.000000 10.850250
1103.000000 14.081263
1104.000000 9.752996
1105.000000 10.813652
1106.000000 11.824481
1107.000000 15.152049
1108.000000 15.110345
1109.000000 11.888479
1110.000000 10.777247
1111.000000 10.788562
1112.000000 15.224392
1113.000000 12.938278
1114.000000 17.368955
1115.000000 15.162546
1116.000000 15.037844
1117.000000 14.062814
1118.000000 14.016511
1119.000000 9.687563
1120.000000 9.762543
1121.000000 8.615874
1122.000000 7.570710
1123.000000 12.896470
1124.000000 10.760881
1125.000000 10.797970
1126.000000 5.398033
1127.000000 7.522937
1128.000000 11.853425
1129.000000 9.772800
1130.000000 11.873605
1131.000000 15.100133
1132.000000 15.072233
1133.000000 10.828344
1134.000000 9.739834
1135.000000 11.886745
1136.000000 15.216661
1137.000000 15.070947
1138.000000 8.621102
1139.000000 11.956236
1140.000000 10.769520
1141.000000 13.991753
1142.000000 14.063868
1143.000000 11.836564
1144.000000 8.641303
1145.000000 12.995635
1146.000000 12.854312
1147.000000 6.489311
1148.000000 11.900649
1149.000000 14.093746
1150.000000 7.609818
1151.000000 16.179807
1152.000000 12.935374
1153.000000 16.198100
1154.000000 10.831150
1155.000000 12.953154
1156.000000 12.956210
1157.000000 13.975664
1158.000000 12.976524
1159.000000 19.486999
1160.000000 10.786800
1161.000000 16.168063
1162.000000 8.639680
1163.000000 14.099578
1164.000000 7.555682
1165.000000 10.865562
1166.000000 5.410300
1167.000000 14.111961
1168.000000 8.664122
1169.000000 10.803255
1170.000000 14.118007
1171.000000 8.678714
1172.000000 10.784357
1173.000000 12.919386
1174.000000 10.764561
1175.000000 20.350257
1176.000000 11.828011
1177.000000 9.756319
1178.000000 11.810615
1179.000000 7.561680
1180.000000 13.990485
1181.000000 16.333629
1182.000000 16.180305
1183.000000 15.052963
1184.000000 7.578644
1185.000000 9.771647
1186.000000 15.148883
1187.000000 11.885776
1188.000000 11.960142
1189.000000 5.408326
1190.000000 18.507969
1191.000000 8.636031
1192.000000 8.683600
1193.000000 16.162745
1194.000000 12.934590
1195.000000 16.283698
1196.000000 10.808326
1197.000000 11.870495
1198.000000 14.113399
1199.000000 7.545720
1200.000000 9.723773
1201.000000 10.815382
1202.000000 8.676491
1203.000000 8.714912
1204.000000 17.550384
1205.000000 15.167786
1206.000000 11.906356
1207.000000 11.967852
1208.000000 8.645338
1209.000000 7.556817
1210.000000 15.206753
1211.000000 16.328071
1212.000000 7.599982
1213.000000 7.576050
1214.000000 12.990638
1215.000000 4.344148
1216.000000 13.027485
1217.000000 18.536357
1218.000000 12.967507
1219.000000 9.774879
1220.000000 11.966201
1221.000000 11.862382
1222.000000 11.910171
1223.000000 16.241314
1224.000000 11.911970
1225.000000 15.289879
1226.000000 14.061555
1227.000000 17.289599
1228.000000 16.206433
1229.000000 10.827463
1230.000000 6.510772
1231.000000 11.866801
1232.000000 10.868473
1233.000000 10.778435
1234.000000 9.794624
1235.000000 10.836519
1236.000000 10.853446
1237.000000 18.425627
1238.000000 10.833470
1239.000000 7.617161
1240.000000 10.887605
1241.000000 9.765674
1242.000000 11.879897
1243.000000 8.697553
1244.000000 16.156960
1245.000000 4.354978
1246.000000 5.411576
1247.000000 13.007671
1248.000000 10.850610
1249.000000 14.113140
1250.000000 13.084337
1251.000000 6.549541
1252.000000 8.693713
1253.000000 17.278257
1254.000000 11.892489
1255.000000 8.684834
1256.000000 12.993310
1257.000000 3.236673
1258.000000 11.960908
1259.000000 8.664579
1260.000000 2.179508
1261.000000 17.326207
1262.000000 12.040724
1263.000000 12.028516
1264.000000 14.102948
1265.000000 7.599246
1266.000000 9.794361
1267.000000 11.964475
1268.000000 15.070051
1269.000000 12.009763
1270.000000 9.723454
1271.000000 11.977795
1272.000000 14.074119
1273.000000 10.859260
1274.000000 12.919660
1275.000000 9.748548
1276.000000 13.048939
1277.000000 9.726441
1278.000000 6.488508
1279.000000 11.861642
1280.000000 8.661251
1281.000000 15.216820
1282.000000 13.069003
1283.000000 11.908832
1284.000000 15.197392
1285.000000 9.699103
1286.000000 14.103514
1287.000000 10.937148
1288.000000 14.225703
1289.000000 11.890653
1290.000000 9.794867
1291.000000 5.391436
1292.000000 15.219220
1293.000000 6.518411
1294.000000 13.000535
1295.000000 7.517885
1296.000000 10.860969
1297.000000 11.928875
1298.000000 14.073231
1299.000000 8.738742
