# Left column = Time after Trigger in seconds & Right column = # Counts / Exposure = Flux per cm² s
700.000000 9.766589
701.000000 4.335402
702.000000 6.545581
703.000000 8.685123
704.000000 3.259400
705.000000 3.261281
706.000000 6.528036
707.000000 9.749462
708.000000 5.435641
709.000000 7.560016
710.000000 8.719298
711.000000 11.898769
712.000000 7.585456
713.000000 6.500563
714.000000 7.624113
715.000000 4.349205
716.000000 9.802970
717.000000 8.712866
718.000000 6.606564
719.000000 4.342236
720.000000 12.010080
721.000000 8.719910
722.000000 7.616154
723.000000 5.443382
724.000000 10.862544
725.000000 3.268018
726.000000 4.339699
727.000000 6.532010
728.000000 3.263106
729.000000 6.497585
730.000000 9.711958
731.000000 5.453140
732.000000 9.865823
733.000000 9.735282
734.000000 12.019189
735.000000 5.452417
736.000000 4.350563
737.000000 6.549648
738.000000 9.803525
739.000000 3.278795
740.000000 8.769360
741.000000 7.588739
742.000000 9.778956
743.000000 10.885838
744.000000 4.318337
745.000000 10.867766
746.000000 9.790829
747.000000 7.633992
748.000000 5.482628
749.000000 6.569483
750.000000 2.166327
751.000000 9.801259
752.000000 5.470864
753.000000 6.583381
754.000000 2.172950
755.000000 7.587743
756.000000 7.620694
757.000000 5.467750
758.000000 6.562786
759.000000 11.992423
760.000000 2.184627
761.000000 4.344445
762.000000 8.693927
763.000000 9.945565
764.000000 6.552316
765.000000 9.786492
766.000000 6.562824
767.000000 13.170104
768.000000 9.797729
769.000000 8.743192
770.000000 3.281260
771.000000 9.804194
772.000000 9.862822
773.000000 13.125613
774.000000 9.821165
775.000000 6.540884
776.000000 12.042616
777.000000 7.667636
778.000000 8.722985
779.000000 10.942850
780.000000 7.664277
781.000000 10.943209
782.000000 11.984627
783.000000 4.397547
784.000000 5.470199
785.000000 11.979933
786.000000 3.274254
787.000000 6.590330
788.000000 5.527798
789.000000 7.689828
790.000000 8.686348
791.000000 4.354445
792.000000 7.689012
793.000000 7.633230
794.000000 10.999947
795.000000 12.089381
796.000000 8.744153
797.000000 10.962898
798.000000 6.606501
799.000000 7.711368
800.000000 12.050961
801.000000 13.067219
802.000000 1.096100
803.000000 5.468987
804.000000 6.567180
805.000000 7.717547
806.000000 7.677112
807.000000 4.353617
808.000000 8.767355
809.000000 7.679406
810.000000 8.745045
811.000000 9.857573
812.000000 6.576078
813.000000 2.207683
814.000000 15.401162
815.000000 13.109518
816.000000 7.663568
817.000000 6.560819
818.000000 9.824030
819.000000 9.949661
820.000000 5.464828
821.000000 4.396239
822.000000 8.815796
823.000000 5.504744
824.000000 12.013643
825.000000 5.483132
826.000000 4.407857
827.000000 3.276838
828.000000 9.802560
829.000000 14.228392
830.000000 10.987826
831.000000 7.677420
832.000000 7.655468
833.000000 8.799761
834.000000 7.693496
835.000000 9.881975
836.000000 9.899570
837.000000 8.743133
838.000000 7.705210
839.000000 2.197314
840.000000 3.282755
841.000000 5.469772
842.000000 7.647314
843.000000 5.513134
844.000000 7.666458
845.000000 14.315534
846.000000 10.936602
847.000000 6.564438
848.000000 6.568456
849.000000 10.968213
850.000000 9.860764
851.000000 14.244574
852.000000 13.184795
853.000000 10.991348
854.000000 15.433618
855.000000 2.192421
856.000000 10.984854
857.000000 16.515235
858.000000 8.780771
859.000000 14.190105
860.000000 9.825685
861.000000 5.481369
862.000000 4.388204
863.000000 10.942474
864.000000 12.067153
865.000000 6.591590
866.000000 10.971219
867.000000 3.297028
868.000000 8.770640
869.000000 5.486728
870.000000 5.499119
871.000000 10.904909
872.000000 8.859316
873.000000 8.811582
874.000000 5.499795
875.000000 11.050351
876.000000 8.789291
877.000000 14.429504
878.000000 5.452213
879.000000 12.109643
880.000000 8.796561
881.000000 4.388005
882.000000 15.399329
883.000000 3.312437
884.000000 7.728016
885.000000 14.379196
886.000000 9.981995
887.000000 11.118971
888.000000 3.310418
889.000000 14.364584
890.000000 7.691408
891.000000 8.795911
892.000000 8.803726
893.000000 7.660769
894.000000 8.813845
895.000000 8.823954
896.000000 7.797705
897.000000 8.866581
898.000000 9.901242
899.000000 5.551939
900.000000 6.634377
901.000000 8.822221
902.000000 9.867281
903.000000 11.002605
904.000000 13.221561
905.000000 3.314136
906.000000 3.308047
907.000000 6.579122
908.000000 8.790853
909.000000 9.957506
910.000000 12.121178
911.000000 5.454945
912.000000 5.528774
913.000000 15.362988
914.000000 6.655748
915.000000 7.759048
916.000000 10.007929
917.000000 6.651722
918.000000 9.916226
919.000000 8.840705
920.000000 13.316651
921.000000 12.169627
922.000000 5.510278
923.000000 12.172555
924.000000 6.649280
925.000000 14.513073
926.000000 5.535872
927.000000 6.623211
928.000000 12.214585
929.000000 11.050549
930.000000 5.549950
931.000000 12.141239
932.000000 5.526739
933.000000 13.330034
934.000000 8.891006
935.000000 11.062827
936.000000 13.371528
937.000000 4.453172
938.000000 12.075185
939.000000 13.248456
940.000000 13.261442
941.000000 9.824773
942.000000 8.864695
943.000000 10.038106
944.000000 8.802099
945.000000 14.359052
946.000000 13.272130
947.000000 9.952006
948.000000 13.324909
949.000000 6.632973
950.000000 7.733528
951.000000 5.545745
952.000000 11.063634
953.000000 11.032033
954.000000 6.656718
955.000000 8.857240
956.000000 14.405936
957.000000 6.650821
958.000000 9.942936
959.000000 7.752143
960.000000 9.997807
961.000000 11.113925
962.000000 11.061844
963.000000 7.748580
964.000000 12.249809
965.000000 9.959750
966.000000 8.831465
967.000000 13.316486
968.000000 11.026792
969.000000 6.587708
970.000000 4.439932
971.000000 6.662393
972.000000 8.823719
973.000000 6.719631
974.000000 7.742418
975.000000 14.398896
976.000000 6.644834
977.000000 6.659363
978.000000 12.252886
979.000000 10.014801
980.000000 8.864635
981.000000 8.822237
982.000000 8.857607
983.000000 13.325617
984.000000 8.927622
985.000000 12.294854
986.000000 4.442624
987.000000 11.147658
988.000000 16.732727
989.000000 7.820352
990.000000 12.161057
991.000000 10.025248
992.000000 12.158900
993.000000 14.373710
994.000000 12.281539
995.000000 8.871930
996.000000 17.820590
997.000000 11.071953
998.000000 19.039185
999.000000 8.906565
1000.000000 13.262718
1001.000000 23.377507
1002.000000 15.523026
1003.000000 39.162873
1004.000000 45.704209
1005.000000 41.586737
1006.000000 32.434325
1007.000000 22.381234
1008.000000 28.047247
1009.000000 40.360494
1010.000000 50.509962
1011.000000 51.224897
1012.000000 20.073364
1013.000000 15.532508
1014.000000 14.529871
1015.000000 12.337793
1016.000000 15.602189
1017.000000 14.531269
1018.000000 14.484087
1019.000000 7.834995
1020.000000 6.711315
1021.000000 11.103825
1022.000000 15.620973
1023.000000 20.119615
1024.000000 14.606011
1025.000000 20.299826
1026.000000 15.778829
1027.000000 12.341428
1028.000000 13.360436
1029.000000 11.231465
1030.000000 19.086625
1031.000000 8.998529
1032.000000 7.816362
1033.000000 8.966100
1034.000000 7.818809
1035.000000 12.388531
1036.000000 4.460699
1037.000000 11.131127
1038.000000 10.066520
1039.000000 12.304073
1040.000000 12.208611
1041.000000 6.729235
1042.000000 7.815757
1043.000000 6.776348
1044.000000 16.827885
1045.000000 10.137777
1046.000000 13.451152
1047.000000 5.573997
1048.000000 13.433293
1049.000000 13.376449
1050.000000 8.919638
1051.000000 11.124133
1052.000000 10.074626
1053.000000 17.915796
1054.000000 10.035579
1055.000000 5.596368
1056.000000 13.541175
1057.000000 13.445937
1058.000000 10.107943
1059.000000 11.207860
1060.000000 8.962664
1061.000000 10.053965
1062.000000 9.007320
1063.000000 13.473059
1064.000000 4.508917
1065.000000 2.248195
1066.000000 5.585906
1067.000000 21.171511
1068.000000 7.841249
1069.000000 5.591278
1070.000000 10.110134
1071.000000 14.493521
1072.000000 13.465640
1073.000000 10.083877
1074.000000 13.521270
1075.000000 10.111110
1076.000000 5.640561
1077.000000 13.460450
1078.000000 13.504792
1079.000000 16.939783
1080.000000 10.079906
1081.000000 9.030218
1082.000000 10.205129
1083.000000 16.880506
1084.000000 12.291083
1085.000000 14.749380
1086.000000 7.901825
1087.000000 15.735842
1088.000000 12.379755
1089.000000 10.088557
1090.000000 11.234384
1091.000000 11.323658
1092.000000 13.561768
1093.000000 5.621068
1094.000000 19.116445
1095.000000 10.141459
1096.000000 12.431679
1097.000000 14.707984
1098.000000 16.955865
1099.000000 11.298700
1100.000000 10.136593
1101.000000 10.083557
1102.000000 15.822732
1103.000000 22.677627
1104.000000 13.648327
1105.000000 14.672872
1106.000000 12.403229
1107.000000 14.772754
1108.000000 3.395218
1109.000000 11.277278
1110.000000 7.927547
1111.000000 15.793983
1112.000000 7.907079
1113.000000 11.294037
1114.000000 15.918033
1115.000000 12.488325
1116.000000 16.003248
1117.000000 10.207307
1118.000000 13.618205
1119.000000 10.225730
1120.000000 13.720257
1121.000000 20.550655
1122.000000 18.028472
1123.000000 9.063078
1124.000000 19.279170
1125.000000 16.020908
1126.000000 17.119680
1127.000000 14.774102
1128.000000 17.985975
1129.000000 22.783369
1130.000000 9.139997
1131.000000 14.858648
1132.000000 21.513397
1133.000000 12.444312
1134.000000 14.744014
1135.000000 15.888518
1136.000000 11.351933
1137.000000 19.675703
1138.000000 11.476715
1139.000000 14.791434
1140.000000 12.586203
1141.000000 17.187756
1142.000000 20.523784
1143.000000 16.008153
1144.000000 26.205828
1145.000000 10.294911
1146.000000 12.741056
1147.000000 18.156604
1148.000000 14.893330
1149.000000 14.854750
1150.000000 19.697525
1151.000000 12.476247
1152.000000 13.717802
1153.000000 19.396100
1154.000000 15.006021
1155.000000 14.912479
1156.000000 15.014670
1157.000000 10.186114
1158.000000 14.847822
1159.000000 18.372846
1160.000000 13.714253
1161.000000 22.876652
1162.000000 15.986040
1163.000000 18.256927
1164.000000 13.717202
1165.000000 10.374097
1166.000000 20.678571
1167.000000 16.069718
1168.000000 13.841270
1169.000000 9.118509
1170.000000 12.615241
1171.000000 18.348696
1172.000000 25.556218
1173.000000 11.547355
1174.000000 17.395553
1175.000000 20.810420
1176.000000 14.960398
1177.000000 12.563186
1178.000000 20.826790
1179.000000 17.277403
1180.000000 16.110616
1181.000000 15.074069
1182.000000 9.192612
1183.000000 14.903595
1184.000000 12.625786
1185.000000 11.467758
1186.000000 18.519455
1187.000000 12.810286
1188.000000 17.270460
1189.000000 14.926510
1190.000000 13.936697
1191.000000 10.432984
1192.000000 19.611314
1193.000000 12.724544
1194.000000 20.878433
1195.000000 23.204318
1196.000000 10.380300
1197.000000 18.293343
1198.000000 15.100954
1199.000000 15.116105
1200.000000 27.667573
1201.000000 15.143225
1202.000000 19.707301
1203.000000 13.962807
1204.000000 27.871965
1205.000000 13.987340
1206.000000 12.917692
1207.000000 19.810464
1208.000000 15.066215
1209.000000 16.324700
1210.000000 12.841164
1211.000000 12.862961
1212.000000 12.700301
1213.000000 12.719729
1214.000000 9.330614
1215.000000 17.501530
1216.000000 10.519713
1217.000000 12.685843
1218.000000 18.554204
1219.000000 11.537470
1220.000000 28.130646
1221.000000 13.854727
1222.000000 18.708361
1223.000000 19.687603
1224.000000 20.942034
1225.000000 19.774789
1226.000000 10.450144
1227.000000 10.493537
1228.000000 23.458847
1229.000000 16.387490
1230.000000 19.889614
1231.000000 11.728055
1232.000000 15.217149
1233.000000 17.424361
1234.000000 16.035248
1235.000000 12.826768
1236.000000 19.844352
1237.000000 19.881879
1238.000000 17.569110
1239.000000 18.752514
1240.000000 10.520752
1241.000000 8.161447
1242.000000 16.357632
1243.000000 5.853071
1244.000000 12.951906
1245.000000 11.635297
1246.000000 16.339740
1247.000000 11.695279
1248.000000 14.099598
1249.000000 18.682432
1250.000000 13.966967
1251.000000 11.645807
1252.000000 9.352684
1253.000000 12.820588
1254.000000 15.249823
1255.000000 12.894031
1256.000000 19.901161
1257.000000 17.651965
1258.000000 17.475421
1259.000000 15.142036
1260.000000 18.707597
1261.000000 20.796393
1262.000000 14.020449
1263.000000 13.992930
1264.000000 9.370091
1265.000000 19.927643
1266.000000 11.749570
1267.000000 11.837695
1268.000000 5.802161
1269.000000 18.903964
1270.000000 18.750633
1271.000000 11.730130
1272.000000 16.457094
1273.000000 7.089031
1274.000000 15.160421
1275.000000 24.637875
1276.000000 10.559986
1277.000000 14.069125
1278.000000 27.183283
1279.000000 12.819792
1280.000000 22.324233
1281.000000 23.248969
1282.000000 15.203587
1283.000000 24.693302
1284.000000 15.399610
1285.000000 22.059467
1286.000000 10.527809
1287.000000 20.188997
1288.000000 21.056876
1289.000000 17.537113
1290.000000 17.638283
1291.000000 12.945002
1292.000000 17.760076
1293.000000 17.860399
1294.000000 8.250377
1295.000000 16.481830
1296.000000 14.108702
1297.000000 16.365781
1298.000000 17.596776
1299.000000 21.072858
