# Left column = Time after Trigger in seconds & Right column = # Counts / Exposure = Flux per cm² s
700.000000 5.433247
701.000000 8.655701
702.000000 11.928014
703.000000 5.425511
704.000000 13.085017
705.000000 7.589239
706.000000 9.787901
707.000000 4.319547
708.000000 11.893809
709.000000 8.705781
710.000000 9.808867
711.000000 10.876808
712.000000 11.791537
713.000000 6.436568
714.000000 14.011561
715.000000 13.003951
716.000000 6.479313
717.000000 12.976649
718.000000 8.652902
719.000000 9.756365
720.000000 8.708688
721.000000 8.705908
722.000000 9.747956
723.000000 10.733205
724.000000 9.771408
725.000000 9.662994
726.000000 9.771196
727.000000 10.779006
728.000000 11.928811
729.000000 12.959273
730.000000 9.757609
731.000000 10.778601
732.000000 5.376748
733.000000 7.568491
734.000000 6.523148
735.000000 8.679624
736.000000 12.966730
737.000000 8.658440
738.000000 9.698327
739.000000 7.592410
740.000000 9.728812
741.000000 6.503950
742.000000 8.652284
743.000000 16.220736
744.000000 7.553441
745.000000 9.741536
746.000000 7.614782
747.000000 11.898900
748.000000 6.503314
749.000000 10.832386
750.000000 11.887934
751.000000 7.582738
752.000000 9.676088
753.000000 5.401966
754.000000 8.666411
755.000000 6.504787
756.000000 6.466297
757.000000 6.482436
758.000000 5.427937
759.000000 9.731926
760.000000 10.920455
761.000000 7.596432
762.000000 10.751305
763.000000 11.902728
764.000000 6.484772
765.000000 12.987115
766.000000 9.809536
767.000000 6.457963
768.000000 7.601375
769.000000 14.061671
770.000000 7.573119
771.000000 5.429398
772.000000 6.537056
773.000000 7.567894
774.000000 5.405783
775.000000 6.450045
776.000000 10.814758
777.000000 4.302216
778.000000 9.790243
779.000000 10.875058
780.000000 8.638193
781.000000 7.581537
782.000000 12.975465
783.000000 17.209170
784.000000 17.409736
785.000000 10.780293
786.000000 16.104172
787.000000 4.325003
788.000000 12.959938
789.000000 8.635854
790.000000 6.477434
791.000000 7.599843
792.000000 6.571757
793.000000 11.856639
794.000000 9.725070
795.000000 12.950822
796.000000 5.378368
797.000000 11.936937
798.000000 7.576601
799.000000 5.408819
800.000000 12.988400
801.000000 8.622395
802.000000 6.494302
803.000000 11.862890
804.000000 10.781791
805.000000 7.595825
806.000000 15.186611
807.000000 7.577284
808.000000 9.745427
809.000000 10.839457
810.000000 6.478789
811.000000 8.681927
812.000000 8.664918
813.000000 10.785393
814.000000 10.849996
815.000000 5.429280
816.000000 10.762488
817.000000 4.342139
818.000000 17.298259
819.000000 9.665817
820.000000 8.648534
821.000000 10.813192
822.000000 8.592065
823.000000 7.556281
824.000000 8.704823
825.000000 10.802509
826.000000 16.201160
827.000000 15.022544
828.000000 9.763199
829.000000 16.329435
830.000000 5.427571
831.000000 7.618427
832.000000 16.165819
833.000000 7.593582
834.000000 8.641124
835.000000 7.601678
836.000000 14.112182
837.000000 10.759848
838.000000 11.888946
839.000000 12.976142
840.000000 7.591368
841.000000 7.589195
842.000000 11.941948
843.000000 9.750313
844.000000 10.794942
845.000000 9.739323
846.000000 8.646834
847.000000 4.325080
848.000000 11.904713
849.000000 15.267251
850.000000 12.974871
851.000000 6.492726
852.000000 11.869467
853.000000 7.579596
854.000000 4.348012
855.000000 9.778436
856.000000 7.602947
857.000000 9.811505
858.000000 4.334148
859.000000 9.700413
860.000000 10.847428
861.000000 7.577529
862.000000 6.502872
863.000000 7.639799
864.000000 10.831900
865.000000 9.713142
866.000000 12.977996
867.000000 16.386276
868.000000 9.769110
869.000000 9.742847
870.000000 4.328147
871.000000 15.185669
872.000000 10.834214
873.000000 10.794753
874.000000 7.552613
875.000000 12.951599
876.000000 15.263618
877.000000 7.571650
878.000000 13.011929
879.000000 8.639504
880.000000 10.842221
881.000000 8.656415
882.000000 17.358380
883.000000 13.031206
884.000000 6.476532
885.000000 14.042974
886.000000 14.070485
887.000000 8.687476
888.000000 18.394008
889.000000 7.605403
890.000000 5.458360
891.000000 3.235613
892.000000 13.973275
893.000000 5.392493
894.000000 3.267905
895.000000 15.191467
896.000000 2.181545
897.000000 8.641040
898.000000 6.498983
899.000000 15.179428
900.000000 9.756619
901.000000 10.894080
902.000000 9.795657
903.000000 4.329635
904.000000 6.450120
905.000000 6.516185
906.000000 4.341623
907.000000 9.729478
908.000000 9.734894
909.000000 8.654141
910.000000 16.284829
911.000000 10.816391
912.000000 15.005893
913.000000 4.324575
914.000000 8.699431
915.000000 11.858201
916.000000 5.394239
917.000000 14.032415
918.000000 12.936036
919.000000 5.395869
920.000000 13.005701
921.000000 8.622917
922.000000 6.475923
923.000000 9.716632
924.000000 6.480340
925.000000 8.695036
926.000000 11.876569
927.000000 7.602901
928.000000 10.828586
929.000000 7.549970
930.000000 6.458107
931.000000 5.412997
932.000000 9.714953
933.000000 14.047736
934.000000 11.886757
935.000000 8.618922
936.000000 13.013802
937.000000 10.751601
938.000000 8.599052
939.000000 6.505646
940.000000 8.663874
941.000000 6.488073
942.000000 9.729008
943.000000 11.887284
944.000000 4.304697
945.000000 8.663777
946.000000 11.952039
947.000000 17.212493
948.000000 14.023033
949.000000 8.666550
950.000000 6.453312
951.000000 9.751932
952.000000 9.723070
953.000000 9.692641
954.000000 7.568254
955.000000 8.675824
956.000000 14.108001
957.000000 6.480340
958.000000 17.352034
959.000000 9.757445
960.000000 20.499152
961.000000 14.034953
962.000000 5.417510
963.000000 9.713241
964.000000 9.706719
965.000000 5.432347
966.000000 6.462730
967.000000 8.640093
968.000000 5.433304
969.000000 7.525815
970.000000 5.400203
971.000000 12.945032
972.000000 15.125592
973.000000 5.437799
974.000000 9.773224
975.000000 8.683809
976.000000 13.985062
977.000000 6.507992
978.000000 7.564233
979.000000 8.630105
980.000000 14.131320
981.000000 8.655263
982.000000 10.829585
983.000000 8.630323
984.000000 9.742573
985.000000 11.927636
986.000000 16.189789
987.000000 15.078174
988.000000 7.634140
989.000000 7.515978
990.000000 10.833079
991.000000 4.309318
992.000000 7.574743
993.000000 15.225191
994.000000 16.147881
995.000000 8.654828
996.000000 9.768438
997.000000 6.478474
998.000000 9.731012
999.000000 4.323439
1000.000000 465.567768
1001.000000 339.522387
1002.000000 126.223580
1003.000000 69.599878
1004.000000 47.454595
1005.000000 28.044086
1006.000000 28.264237
1007.000000 23.736488
1008.000000 28.098834
1009.000000 16.211686
1010.000000 17.372029
1011.000000 18.335732
1012.000000 18.327008
1013.000000 17.232420
1014.000000 11.882439
1015.000000 23.849670
1016.000000 15.159478
1017.000000 8.648659
1018.000000 9.742584
1019.000000 15.077183
1020.000000 15.111306
1021.000000 15.112333
1022.000000 12.958307
1023.000000 11.851403
1024.000000 11.847979
1025.000000 9.654571
1026.000000 12.875976
1027.000000 8.579485
1028.000000 8.602326
1029.000000 10.793786
1030.000000 15.177269
1031.000000 10.791709
1032.000000 8.634377
1033.000000 5.403373
1034.000000 8.599242
1035.000000 10.805390
1036.000000 17.325991
1037.000000 10.780530
1038.000000 14.063476
1039.000000 8.696849
1040.000000 2.155402
1041.000000 12.975434
1042.000000 6.469203
1043.000000 12.918546
1044.000000 15.086176
1045.000000 10.814174
1046.000000 16.244330
1047.000000 18.543742
1048.000000 10.837477
1049.000000 10.758549
1050.000000 10.892905
1051.000000 19.547030
1052.000000 10.742134
1053.000000 4.366072
1054.000000 4.357550
1055.000000 7.595716
1056.000000 10.848141
1057.000000 10.876299
1058.000000 9.696040
1059.000000 10.862850
1060.000000 8.589802
1061.000000 7.575288
1062.000000 8.648602
1063.000000 17.285641
1064.000000 8.646341
1065.000000 8.679169
1066.000000 11.870648
1067.000000 8.639548
1068.000000 4.322176
1069.000000 7.543877
1070.000000 9.687798
1071.000000 13.012660
1072.000000 12.980063
1073.000000 5.404980
1074.000000 10.843207
1075.000000 11.918470
1076.000000 8.610046
1077.000000 7.540351
1078.000000 5.405406
1079.000000 11.933267
1080.000000 6.492931
1081.000000 14.089578
1082.000000 10.813890
1083.000000 7.599241
1084.000000 9.792339
1085.000000 16.300252
1086.000000 9.749464
1087.000000 9.776996
1088.000000 6.504952
1089.000000 11.865010
1090.000000 10.811002
1091.000000 7.618873
1092.000000 7.559846
1093.000000 10.853203
1094.000000 9.721646
1095.000000 12.915738
1096.000000 10.788659
1097.000000 5.384577
1098.000000 9.712146
1099.000000 10.783882
1100.000000 5.414971
1101.000000 8.659154
1102.000000 3.264134
1103.000000 10.898062
1104.000000 8.697813
1105.000000 9.713093
1106.000000 14.094602
1107.000000 11.893711
1108.000000 8.629787
1109.000000 13.057143
1110.000000 6.489662
1111.000000 10.851796
1112.000000 9.749592
1113.000000 7.554247
1114.000000 10.849478
1115.000000 7.614556
1116.000000 4.349123
1117.000000 6.510578
1118.000000 7.569259
1119.000000 11.874830
1120.000000 9.713390
1121.000000 7.646648
1122.000000 11.941873
1123.000000 5.421389
1124.000000 4.318160
1125.000000 8.700782
1126.000000 17.245295
1127.000000 7.639188
1128.000000 13.028737
1129.000000 9.759562
1130.000000 16.160762
1131.000000 4.354823
1132.000000 6.498499
1133.000000 15.167716
1134.000000 10.870587
1135.000000 7.618099
1136.000000 9.770157
1137.000000 5.408576
1138.000000 9.722547
1139.000000 13.005773
1140.000000 11.893201
1141.000000 9.784421
1142.000000 10.888517
1143.000000 8.668879
1144.000000 11.932545
1145.000000 10.874177
1146.000000 12.942355
1147.000000 5.429909
1148.000000 14.132760
1149.000000 5.457994
1150.000000 8.637866
1151.000000 4.318297
1152.000000 5.436701
1153.000000 8.678718
1154.000000 4.324497
1155.000000 10.829891
1156.000000 7.580866
1157.000000 12.971179
1158.000000 8.715972
1159.000000 17.277810
1160.000000 11.953956
1161.000000 10.870936
1162.000000 10.903630
1163.000000 12.980132
1164.000000 5.386674
1165.000000 6.526960
1166.000000 5.462815
1167.000000 8.643904
1168.000000 7.580459
1169.000000 13.024066
1170.000000 5.454861
1171.000000 8.635964
1172.000000 6.506192
1173.000000 4.323580
1174.000000 7.540781
1175.000000 7.584450
1176.000000 7.522449
1177.000000 8.688778
1178.000000 9.702809
1179.000000 13.086288
1180.000000 4.359323
1181.000000 9.703316
1182.000000 11.882746
1183.000000 16.240364
1184.000000 12.950053
1185.000000 5.400598
1186.000000 8.590223
1187.000000 3.259879
1188.000000 11.930722
1189.000000 10.790973
1190.000000 8.669952
1191.000000 10.878845
1192.000000 6.509386
1193.000000 14.225484
1194.000000 10.836334
1195.000000 6.524060
1196.000000 10.842357
1197.000000 3.268795
1198.000000 6.524211
1199.000000 6.483750
1200.000000 7.548610
1201.000000 8.684788
1202.000000 5.402020
1203.000000 12.938761
1204.000000 9.759910
1205.000000 8.723741
1206.000000 7.567170
1207.000000 10.773697
1208.000000 9.818253
1209.000000 8.667145
1210.000000 9.774892
1211.000000 13.019310
1212.000000 7.640773
1213.000000 11.961943
1214.000000 9.717806
1215.000000 16.338402
1216.000000 10.834031
1217.000000 4.348278
1218.000000 7.614598
1219.000000 14.146187
1220.000000 8.655811
1221.000000 11.900020
1222.000000 8.640184
1223.000000 9.754604
1224.000000 11.970647
1225.000000 10.849364
1226.000000 16.289037
1227.000000 9.806555
1228.000000 10.859307
1229.000000 6.527406
1230.000000 5.424499
1231.000000 9.777241
1232.000000 7.557309
1233.000000 8.702693
1234.000000 8.587606
1235.000000 13.996222
1236.000000 8.698933
1237.000000 7.559193
1238.000000 8.631984
1239.000000 11.842468
1240.000000 6.436464
1241.000000 6.482070
1242.000000 7.595154
1243.000000 9.777077
1244.000000 5.383963
1245.000000 13.053391
1246.000000 7.553323
1247.000000 12.969594
1248.000000 6.496684
1249.000000 6.509095
1250.000000 7.594531
1251.000000 7.594743
1252.000000 11.892555
1253.000000 11.969470
1254.000000 10.820091
1255.000000 5.391198
1256.000000 7.570268
1257.000000 14.022191
1258.000000 5.398802
1259.000000 17.224050
1260.000000 6.467694
1261.000000 7.618499
1262.000000 9.699400
1263.000000 7.606880
1264.000000 9.792213
1265.000000 8.654114
1266.000000 7.628346
1267.000000 6.526524
1268.000000 12.987490
1269.000000 8.654626
1270.000000 4.325122
1271.000000 8.661356
1272.000000 6.443646
1273.000000 11.872848
1274.000000 9.694728
1275.000000 19.457283
1276.000000 16.137485
1277.000000 8.641651
1278.000000 13.080996
1279.000000 5.381229
1280.000000 6.515547
1281.000000 8.683801
1282.000000 15.070037
1283.000000 10.868300
1284.000000 9.773027
1285.000000 15.094857
1286.000000 11.765821
1287.000000 9.737118
1288.000000 8.673302
1289.000000 5.463429
1290.000000 4.301394
1291.000000 9.724669
1292.000000 6.532713
1293.000000 10.762888
1294.000000 10.886006
1295.000000 8.673981
1296.000000 5.378211
1297.000000 9.782021
1298.000000 7.578425
1299.000000 14.053044
