# Left column = Time after Trigger in seconds & Right column = # Counts / Exposure = Flux per cm² s
700.000000 7.750455
701.000000 11.068339
702.000000 11.127544
703.000000 9.993142
704.000000 10.987290
705.000000 8.870352
706.000000 11.105406
707.000000 13.292286
708.000000 13.310510
709.000000 8.816186
710.000000 13.196947
711.000000 16.580643
712.000000 14.325080
713.000000 9.916467
714.000000 9.930847
715.000000 12.138721
716.000000 19.901843
717.000000 8.837465
718.000000 17.773841
719.000000 8.897305
720.000000 7.794893
721.000000 16.590833
722.000000 17.646673
723.000000 6.610324
724.000000 8.828497
725.000000 9.978094
726.000000 12.170571
727.000000 14.405644
728.000000 11.010692
729.000000 12.244136
730.000000 14.385535
731.000000 17.654753
732.000000 12.148113
733.000000 12.149864
734.000000 11.050426
735.000000 20.939311
736.000000 12.160984
737.000000 19.945833
738.000000 14.344401
739.000000 20.897822
740.000000 13.209363
741.000000 13.205427
742.000000 17.541217
743.000000 12.128804
744.000000 6.593967
745.000000 7.750855
746.000000 5.523526
747.000000 13.248783
748.000000 14.419865
749.000000 13.211817
750.000000 7.728484
751.000000 15.332255
752.000000 3.317031
753.000000 17.626789
754.000000 15.454254
755.000000 9.901003
756.000000 13.139259
757.000000 13.255712
758.000000 6.666817
759.000000 19.855055
760.000000 8.823236
761.000000 10.012207
762.000000 8.790535
763.000000 8.742128
764.000000 4.436500
765.000000 10.991058
766.000000 16.524843
767.000000 14.293105
768.000000 15.433935
769.000000 8.801526
770.000000 13.259367
771.000000 10.952866
772.000000 7.705442
773.000000 8.782018
774.000000 9.888896
775.000000 11.035834
776.000000 13.264781
777.000000 8.775339
778.000000 7.716883
779.000000 12.047078
780.000000 7.710708
781.000000 17.642354
782.000000 14.281701
783.000000 13.234163
784.000000 18.768612
785.000000 14.196712
786.000000 9.856707
787.000000 13.175945
788.000000 15.455113
789.000000 15.310226
790.000000 7.726577
791.000000 13.229983
792.000000 13.189782
793.000000 18.562544
794.000000 26.224504
795.000000 9.914144
796.000000 8.817862
797.000000 6.598969
798.000000 12.171711
799.000000 10.987036
800.000000 7.676823
801.000000 8.756931
802.000000 8.725610
803.000000 14.220988
804.000000 9.831576
805.000000 11.991609
806.000000 15.383092
807.000000 11.026580
808.000000 10.980345
809.000000 8.724122
810.000000 16.427713
811.000000 14.288103
812.000000 10.948490
813.000000 5.455092
814.000000 13.091611
815.000000 10.869256
816.000000 7.685779
817.000000 9.903374
818.000000 3.288595
819.000000 14.206214
820.000000 10.986386
821.000000 14.242686
822.000000 15.331380
823.000000 6.570943
824.000000 9.854827
825.000000 15.287433
826.000000 16.402618
827.000000 10.976924
828.000000 13.161930
829.000000 8.747022
830.000000 13.160600
831.000000 10.907011
832.000000 4.376855
833.000000 19.614393
834.000000 10.968405
835.000000 10.892468
836.000000 16.353458
837.000000 9.812194
838.000000 7.655477
839.000000 7.652280
840.000000 5.464140
841.000000 11.976244
842.000000 9.849020
843.000000 16.390468
844.000000 17.513879
845.000000 9.836158
846.000000 13.091477
847.000000 19.672273
848.000000 7.658741
849.000000 7.662002
850.000000 15.296651
851.000000 9.830921
852.000000 9.873744
853.000000 13.061391
854.000000 12.058491
855.000000 11.989730
856.000000 14.152403
857.000000 6.522461
858.000000 17.515445
859.000000 7.577676
860.000000 4.367972
861.000000 10.930956
862.000000 9.757252
863.000000 9.862333
864.000000 8.702629
865.000000 10.853707
866.000000 7.661202
867.000000 17.558610
868.000000 8.741032
869.000000 10.888733
870.000000 13.079614
871.000000 11.946599
872.000000 11.999778
873.000000 13.015883
874.000000 8.662018
875.000000 14.170069
876.000000 12.006258
877.000000 15.306416
878.000000 18.454113
879.000000 14.180965
880.000000 7.616809
881.000000 12.009785
882.000000 12.009637
883.000000 11.921235
884.000000 18.525157
885.000000 7.620213
886.000000 14.112485
887.000000 13.084179
888.000000 5.459450
889.000000 14.140347
890.000000 14.133014
891.000000 14.161785
892.000000 15.282665
893.000000 3.248426
894.000000 10.925842
895.000000 18.453532
896.000000 9.815294
897.000000 13.066641
898.000000 8.697721
899.000000 14.073946
900.000000 14.164236
901.000000 13.047059
902.000000 7.605264
903.000000 17.553659
904.000000 9.787688
905.000000 9.750805
906.000000 17.427465
907.000000 11.966100
908.000000 15.275193
909.000000 9.810556
910.000000 9.736715
911.000000 7.606484
912.000000 13.087640
913.000000 15.177784
914.000000 8.689170
915.000000 9.830205
916.000000 13.104911
917.000000 16.364988
918.000000 13.065130
919.000000 6.502299
920.000000 7.600178
921.000000 14.183947
922.000000 16.266462
923.000000 15.213186
924.000000 12.029746
925.000000 16.278133
926.000000 13.000908
927.000000 8.665979
928.000000 11.926249
929.000000 10.825374
930.000000 14.127172
931.000000 13.054202
932.000000 16.294435
933.000000 12.004372
934.000000 12.971324
935.000000 9.740631
936.000000 13.015306
937.000000 15.210388
938.000000 12.968107
939.000000 13.073295
940.000000 10.820920
941.000000 9.786224
942.000000 14.226328
943.000000 7.583163
944.000000 6.520597
945.000000 10.846397
946.000000 14.186693
947.000000 9.804157
948.000000 14.123948
949.000000 7.606378
950.000000 16.168217
951.000000 10.817924
952.000000 12.986933
953.000000 11.891265
954.000000 8.682668
955.000000 14.103036
956.000000 10.790062
957.000000 11.942562
958.000000 5.422062
959.000000 17.320866
960.000000 4.343493
961.000000 10.875825
962.000000 10.924986
963.000000 9.727852
964.000000 13.010740
965.000000 7.607639
966.000000 11.967203
967.000000 15.184699
968.000000 15.207619
969.000000 11.956334
970.000000 22.697860
971.000000 8.641156
972.000000 19.491351
973.000000 11.886471
974.000000 14.039134
975.000000 18.504877
976.000000 13.022656
977.000000 4.350059
978.000000 9.752914
979.000000 15.192182
980.000000 10.818786
981.000000 14.113434
982.000000 5.375699
983.000000 9.758570
984.000000 14.059646
985.000000 10.907255
986.000000 6.509417
987.000000 14.038898
988.000000 12.997165
989.000000 6.508039
990.000000 10.811273
991.000000 7.578928
992.000000 8.732456
993.000000 8.661080
994.000000 6.482913
995.000000 10.825904
996.000000 10.747987
997.000000 9.725575
998.000000 12.930496
999.000000 12.986300
1000.000000 13.060011
1001.000000 13.001554
1002.000000 37.943205
1003.000000 45.715496
1004.000000 23.861880
1005.000000 20.429370
1006.000000 16.212339
1007.000000 11.859017
1008.000000 15.161419
1009.000000 14.040237
1010.000000 13.007115
1011.000000 11.896726
1012.000000 10.786331
1013.000000 13.962318
1014.000000 10.794425
1015.000000 9.711858
1016.000000 11.953157
1017.000000 11.981342
1018.000000 11.862613
1019.000000 11.870855
1020.000000 10.798225
1021.000000 8.663351
1022.000000 10.801177
1023.000000 14.039501
1024.000000 9.738598
1025.000000 8.635164
1026.000000 5.363777
1027.000000 9.682174
1028.000000 6.478628
1029.000000 12.932035
1030.000000 7.532231
1031.000000 17.298474
1032.000000 18.305575
1033.000000 6.504255
1034.000000 5.404726
1035.000000 6.512440
1036.000000 14.087823
1037.000000 11.878877
1038.000000 14.053959
1039.000000 9.735951
1040.000000 12.988085
1041.000000 12.983894
1042.000000 6.470298
1043.000000 10.833501
1044.000000 5.390180
1045.000000 9.713797
1046.000000 9.706204
1047.000000 10.758975
1048.000000 9.673104
1049.000000 12.876581
1050.000000 9.742142
1051.000000 7.560903
1052.000000 2.163428
1053.000000 8.656723
1054.000000 9.671212
1055.000000 7.558311
1056.000000 9.698056
1057.000000 10.803031
1058.000000 11.849928
1059.000000 17.345127
1060.000000 7.548653
1061.000000 6.470928
1062.000000 6.450092
1063.000000 14.112529
1064.000000 8.618108
1065.000000 8.592249
1066.000000 5.418034
1067.000000 11.848830
1068.000000 10.775038
1069.000000 8.687430
1070.000000 11.867062
1071.000000 9.653534
1072.000000 5.404222
1073.000000 11.869335
1074.000000 14.021436
1075.000000 11.832906
1076.000000 7.529147
1077.000000 8.694252
1078.000000 7.607217
1079.000000 6.477263
1080.000000 10.777929
1081.000000 11.815541
1082.000000 9.687157
1083.000000 11.845338
1084.000000 9.638789
1085.000000 16.131497
1086.000000 9.699436
1087.000000 15.092125
1088.000000 15.102357
1089.000000 10.737587
1090.000000 7.526053
1091.000000 7.522317
1092.000000 12.982011
1093.000000 10.821253
1094.000000 12.945103
1095.000000 12.911110
1096.000000 8.667108
1097.000000 8.580453
1098.000000 10.746507
1099.000000 8.635806
1100.000000 10.823561
1101.000000 13.953436
1102.000000 7.543789
1103.000000 15.031797
1104.000000 8.598476
1105.000000 17.335056
1106.000000 8.559737
1107.000000 10.732566
1108.000000 8.597834
1109.000000 10.829461
1110.000000 8.613496
1111.000000 6.443249
1112.000000 9.734003
1113.000000 7.545402
1114.000000 13.997267
1115.000000 9.724774
1116.000000 7.481322
1117.000000 10.777021
1118.000000 9.648122
1119.000000 10.709084
1120.000000 9.735192
1121.000000 8.582169
1122.000000 14.081447
1123.000000 9.673174
1124.000000 10.783695
1125.000000 8.624212
1126.000000 7.506768
1127.000000 19.335820
1128.000000 9.682179
1129.000000 11.790152
1130.000000 10.735060
1131.000000 13.996320
1132.000000 9.652706
1133.000000 13.921885
1134.000000 7.531375
1135.000000 9.624710
1136.000000 12.939736
1137.000000 9.642634
1138.000000 21.470316
1139.000000 7.530113
1140.000000 12.881360
1141.000000 8.635413
1142.000000 10.795337
1143.000000 16.095514
1144.000000 5.382338
1145.000000 7.518582
1146.000000 8.624136
1147.000000 10.718857
1148.000000 7.541452
1149.000000 10.714535
1150.000000 5.385687
1151.000000 8.574456
1152.000000 7.506010
1153.000000 8.672036
1154.000000 8.580499
1155.000000 19.363786
1156.000000 14.052161
1157.000000 9.646370
1158.000000 9.686846
1159.000000 15.090266
1160.000000 11.888608
1161.000000 7.530000
1162.000000 5.377790
1163.000000 9.711657
1164.000000 9.689555
1165.000000 9.700740
1166.000000 12.894037
1167.000000 9.701664
1168.000000 5.377473
1169.000000 12.964470
1170.000000 8.671999
1171.000000 7.574492
1172.000000 15.058998
1173.000000 12.898187
1174.000000 16.089354
1175.000000 10.822686
1176.000000 9.680754
1177.000000 6.477355
1178.000000 4.312155
1179.000000 8.602595
1180.000000 13.978754
1181.000000 8.567235
1182.000000 15.151028
1183.000000 11.856278
1184.000000 9.676349
1185.000000 6.458371
1186.000000 16.073779
1187.000000 7.587852
1188.000000 8.636005
1189.000000 5.412970
1190.000000 8.636191
1191.000000 12.936441
1192.000000 12.915997
1193.000000 5.376631
1194.000000 9.741075
1195.000000 5.399768
1196.000000 2.153822
1197.000000 8.560677
1198.000000 6.509052
1199.000000 11.949174
1200.000000 18.243098
1201.000000 4.349343
1202.000000 13.002344
1203.000000 6.503301
1204.000000 3.247712
1205.000000 4.310889
1206.000000 5.367705
1207.000000 11.860831
1208.000000 12.965757
1209.000000 10.766261
1210.000000 10.886596
1211.000000 18.523688
1212.000000 14.007986
1213.000000 7.582865
1214.000000 10.831139
1215.000000 16.244801
1216.000000 10.846563
1217.000000 11.941101
1218.000000 12.928879
1219.000000 15.165810
1220.000000 8.674993
1221.000000 9.735288
1222.000000 6.462547
1223.000000 7.535428
1224.000000 8.688543
1225.000000 15.188506
1226.000000 5.427513
1227.000000 9.706316
1228.000000 16.286659
1229.000000 9.708949
1230.000000 14.083861
1231.000000 11.900691
1232.000000 10.828441
1233.000000 8.674145
1234.000000 14.114077
1235.000000 8.642685
1236.000000 5.425956
1237.000000 10.744976
1238.000000 14.020387
1239.000000 6.497712
1240.000000 9.752926
1241.000000 12.958826
1242.000000 5.420178
1243.000000 11.837594
1244.000000 9.723397
1245.000000 5.381502
1246.000000 8.632128
1247.000000 6.477951
1248.000000 4.311244
1249.000000 8.647115
1250.000000 9.666611
1251.000000 9.692666
1252.000000 11.800556
1253.000000 5.396872
1254.000000 11.870568
1255.000000 12.968741
1256.000000 13.062321
1257.000000 5.383305
1258.000000 11.897666
1259.000000 9.711674
1260.000000 10.736861
1261.000000 10.859946
1262.000000 5.428857
1263.000000 6.460910
1264.000000 5.384437
1265.000000 7.533895
1266.000000 6.493580
1267.000000 9.757204
1268.000000 3.234911
1269.000000 9.732414
1270.000000 7.523890
1271.000000 9.663175
1272.000000 8.624366
1273.000000 6.509059
1274.000000 10.834354
1275.000000 9.781418
1276.000000 12.980018
1277.000000 11.865017
1278.000000 3.244117
1279.000000 15.181287
1280.000000 9.720098
1281.000000 5.414587
1282.000000 10.799463
1283.000000 8.602533
1284.000000 14.004427
1285.000000 15.123817
1286.000000 11.911237
1287.000000 5.454070
1288.000000 11.933469
1289.000000 8.688631
1290.000000 16.172377
1291.000000 11.896906
1292.000000 9.739917
1293.000000 9.706436
1294.000000 10.868036
1295.000000 10.828995
1296.000000 11.905616
1297.000000 8.640428
1298.000000 17.204291
1299.000000 15.113709
