# Left column = Time after Trigger in seconds & Right column = # Counts / Exposure = Flux per cm² s
700.000000 5.826448
701.000000 13.985548
702.000000 9.357910
703.000000 4.634190
704.000000 5.830658
705.000000 15.065495
706.000000 11.620405
707.000000 13.954777
708.000000 5.795454
709.000000 8.140617
710.000000 13.952232
711.000000 10.543843
712.000000 17.355881
713.000000 10.539895
714.000000 11.665758
715.000000 12.749718
716.000000 9.228097
717.000000 16.239032
718.000000 6.963530
719.000000 10.581126
720.000000 6.990470
721.000000 9.344211
722.000000 13.995168
723.000000 12.814649
724.000000 15.183508
725.000000 20.991621
726.000000 7.056240
727.000000 8.159592
728.000000 6.990332
729.000000 5.817063
730.000000 11.664245
731.000000 14.000234
732.000000 12.865174
733.000000 11.620327
734.000000 8.114043
735.000000 14.076245
736.000000 8.140061
737.000000 12.729819
738.000000 16.354901
739.000000 10.477954
740.000000 15.149740
741.000000 15.094980
742.000000 5.850095
743.000000 7.001529
744.000000 8.153000
745.000000 11.631972
746.000000 5.818940
747.000000 14.006836
748.000000 15.271619
749.000000 10.560226
750.000000 9.435585
751.000000 12.929706
752.000000 9.421468
753.000000 9.253734
754.000000 10.469568
755.000000 15.083782
756.000000 16.295560
757.000000 3.493769
758.000000 16.377190
759.000000 14.136066
760.000000 8.161778
761.000000 12.874600
762.000000 9.332780
763.000000 12.863934
764.000000 15.175517
765.000000 7.000056
766.000000 6.991394
767.000000 9.362619
768.000000 10.456484
769.000000 14.078597
770.000000 15.169065
771.000000 11.734608
772.000000 14.197125
773.000000 10.499422
774.000000 12.892835
775.000000 3.507361
776.000000 11.762751
777.000000 17.545706
778.000000 18.706783
779.000000 14.077466
780.000000 16.500169
781.000000 7.015388
782.000000 7.044091
783.000000 10.495882
784.000000 15.324573
785.000000 11.750396
786.000000 13.007560
787.000000 12.898270
788.000000 8.226109
789.000000 14.090232
790.000000 9.402675
791.000000 14.092304
792.000000 15.154901
793.000000 10.591474
794.000000 11.794448
795.000000 7.040228
796.000000 9.431582
797.000000 12.859291
798.000000 9.399078
799.000000 7.112145
800.000000 11.717661
801.000000 7.029918
802.000000 17.548832
803.000000 10.546015
804.000000 11.744997
805.000000 12.775428
806.000000 16.468513
807.000000 8.268029
808.000000 9.335819
809.000000 9.408474
810.000000 12.977898
811.000000 12.948422
812.000000 17.680819
813.000000 14.006328
814.000000 4.697321
815.000000 9.363549
816.000000 10.518478
817.000000 3.532602
818.000000 10.584050
819.000000 8.222499
820.000000 10.592246
821.000000 18.805107
822.000000 11.819190
823.000000 9.398651
824.000000 11.761028
825.000000 4.717966
826.000000 15.283967
827.000000 10.546892
828.000000 17.672498
829.000000 11.785866
830.000000 4.682889
831.000000 8.279683
832.000000 12.993737
833.000000 11.657110
834.000000 14.030791
835.000000 12.939602
836.000000 10.618017
837.000000 16.395162
838.000000 18.779104
839.000000 12.877075
840.000000 8.247551
841.000000 8.229783
842.000000 12.930581
843.000000 18.767684
844.000000 7.032475
845.000000 11.811119
846.000000 19.951134
847.000000 11.785197
848.000000 3.533326
849.000000 16.399479
850.000000 7.020962
851.000000 12.831723
852.000000 10.567198
853.000000 12.994564
854.000000 12.864840
855.000000 9.296140
856.000000 9.431939
857.000000 8.184674
858.000000 10.534600
859.000000 15.246541
860.000000 16.395124
861.000000 11.654622
862.000000 15.209500
863.000000 8.236362
864.000000 18.865099
865.000000 10.540182
866.000000 5.898596
867.000000 4.723408
868.000000 8.200856
869.000000 12.933646
870.000000 14.030078
871.000000 12.945845
872.000000 8.187293
873.000000 21.099558
874.000000 8.234618
875.000000 9.436355
876.000000 14.149363
877.000000 15.182280
878.000000 10.594779
879.000000 12.943364
880.000000 11.682512
881.000000 11.726931
882.000000 11.759086
883.000000 10.659663
884.000000 8.264207
885.000000 11.733950
886.000000 12.944436
887.000000 12.970210
888.000000 11.865614
889.000000 4.702454
890.000000 13.051059
891.000000 12.901301
892.000000 13.060776
893.000000 7.099104
894.000000 12.987051
895.000000 12.884859
896.000000 10.562185
897.000000 12.879360
898.000000 14.126780
899.000000 12.996051
900.000000 11.827791
901.000000 4.739878
902.000000 11.767226
903.000000 11.843215
904.000000 10.558786
905.000000 9.312715
906.000000 9.393960
907.000000 14.149705
908.000000 8.136948
909.000000 11.844931
910.000000 1.172508
911.000000 9.463048
912.000000 15.285793
913.000000 15.392193
914.000000 10.473754
915.000000 13.076801
916.000000 11.818436
917.000000 2.363152
918.000000 8.187942
919.000000 14.219658
920.000000 9.377805
921.000000 10.680605
922.000000 7.028870
923.000000 17.703720
924.000000 3.524143
925.000000 10.624310
926.000000 9.454369
927.000000 10.695800
928.000000 10.523441
929.000000 17.651904
930.000000 17.712479
931.000000 12.933797
932.000000 8.213244
933.000000 5.954918
934.000000 15.269963
935.000000 17.781251
936.000000 7.018587
937.000000 15.303606
938.000000 10.650362
939.000000 12.924915
940.000000 2.337171
941.000000 17.594820
942.000000 12.988147
943.000000 7.026309
944.000000 13.003707
945.000000 5.856484
946.000000 16.392856
947.000000 9.352276
948.000000 10.594059
949.000000 11.669820
950.000000 15.276942
951.000000 18.838943
952.000000 7.119613
953.000000 5.869810
954.000000 11.770513
955.000000 8.178397
956.000000 12.967055
957.000000 16.379311
958.000000 14.146177
959.000000 8.255996
960.000000 10.532267
961.000000 15.318090
962.000000 14.179420
963.000000 15.210598
964.000000 14.028078
965.000000 8.259921
966.000000 20.016656
967.000000 7.046071
968.000000 5.855937
969.000000 9.441403
970.000000 14.187673
971.000000 11.777216
972.000000 15.354538
973.000000 9.436225
974.000000 9.468316
975.000000 16.525901
976.000000 7.014558
977.000000 5.899754
978.000000 13.125957
979.000000 3.533910
980.000000 9.415402
981.000000 10.686654
982.000000 11.786317
983.000000 8.222711
984.000000 14.204294
985.000000 8.229704
986.000000 8.242961
987.000000 14.203335
988.000000 7.046080
989.000000 12.974228
990.000000 4.695970
991.000000 11.836522
992.000000 9.481219
993.000000 13.047296
994.000000 12.957077
995.000000 16.732711
996.000000 8.273573
997.000000 8.275219
998.000000 8.238127
999.000000 7.053492
1000.000000 8.251729
1001.000000 12.886648
1002.000000 15.270524
1003.000000 22.466882
1004.000000 38.001614
1005.000000 98.571298
1006.000000 118.053734
1007.000000 66.262306
1008.000000 46.285626
1009.000000 30.652479
1010.000000 27.123477
1011.000000 16.452153
1012.000000 40.184105
1013.000000 24.920466
1014.000000 42.280133
1015.000000 77.041088
1016.000000 113.500317
1017.000000 42.583373
1018.000000 16.576656
1019.000000 35.435647
1020.000000 23.599004
1021.000000 18.843122
1022.000000 15.421436
1023.000000 12.954760
1024.000000 23.554190
1025.000000 31.558475
1026.000000 18.929834
1027.000000 24.839390
1028.000000 11.785957
1029.000000 27.090730
1030.000000 26.008548
1031.000000 21.339045
1032.000000 19.967103
1033.000000 12.953498
1034.000000 16.381354
1035.000000 25.825793
1036.000000 12.938056
1037.000000 18.800239
1038.000000 14.059552
1039.000000 16.334738
1040.000000 15.341888
1041.000000 13.017758
1042.000000 22.468525
1043.000000 16.671613
1044.000000 15.399868
1045.000000 9.345155
1046.000000 22.483517
1047.000000 17.670460
1048.000000 15.315146
1049.000000 14.110994
1050.000000 14.157148
1051.000000 10.644633
1052.000000 18.749457
1053.000000 14.205661
1054.000000 20.105902
1055.000000 14.144906
1056.000000 9.383911
1057.000000 10.724825
1058.000000 8.224668
1059.000000 10.608099
1060.000000 10.643705
1061.000000 12.858269
1062.000000 10.502509
1063.000000 8.250434
1064.000000 11.737688
1065.000000 10.625279
1066.000000 14.127221
1067.000000 14.056879
1068.000000 10.596339
1069.000000 10.573320
1070.000000 5.862780
1071.000000 8.219413
1072.000000 16.505526
1073.000000 20.062006
1074.000000 11.739553
1075.000000 9.416836
1076.000000 10.638589
1077.000000 4.728647
1078.000000 10.577181
1079.000000 7.028813
1080.000000 9.422610
1081.000000 12.893696
1082.000000 10.568937
1083.000000 14.111517
1084.000000 7.039902
1085.000000 17.505408
1086.000000 11.780646
1087.000000 9.513864
1088.000000 11.756021
1089.000000 12.982142
1090.000000 16.369619
1091.000000 10.580236
1092.000000 7.043724
1093.000000 9.534967
1094.000000 9.382933
1095.000000 9.364511
1096.000000 12.933037
1097.000000 11.852262
1098.000000 17.717020
1099.000000 13.007254
1100.000000 8.173530
1101.000000 14.266121
1102.000000 16.634883
1103.000000 9.404342
1104.000000 9.459455
1105.000000 7.067681
1106.000000 9.500598
1107.000000 5.915569
1108.000000 16.422614
1109.000000 9.408347
1110.000000 8.204955
1111.000000 11.754562
1112.000000 11.798143
1113.000000 9.302948
1114.000000 14.126819
1115.000000 12.946639
1116.000000 7.000809
1117.000000 12.884905
1118.000000 14.225269
1119.000000 10.528336
1120.000000 11.811015
1121.000000 8.247968
1122.000000 11.732945
1123.000000 15.336561
1124.000000 3.513404
1125.000000 12.851542
1126.000000 12.945525
1127.000000 5.869138
1128.000000 11.766432
1129.000000 7.049246
1130.000000 8.238563
1131.000000 9.447460
1132.000000 8.247915
1133.000000 10.547463
1134.000000 11.770807
1135.000000 11.732083
1136.000000 16.489255
1137.000000 5.806913
1138.000000 10.655617
1139.000000 9.374577
1140.000000 7.015224
1141.000000 12.989436
1142.000000 5.897624
1143.000000 7.101981
1144.000000 2.358637
1145.000000 10.618319
1146.000000 11.642177
1147.000000 10.598301
1148.000000 12.910308
1149.000000 5.877910
1150.000000 11.718865
1151.000000 9.448514
1152.000000 5.834321
1153.000000 7.027297
1154.000000 11.732746
1155.000000 10.577885
1156.000000 10.570174
1157.000000 4.683725
1158.000000 5.840473
1159.000000 11.708880
1160.000000 5.857866
1161.000000 10.529415
1162.000000 17.784742
1163.000000 8.184871
1164.000000 10.683782
1165.000000 12.798244
1166.000000 12.852601
1167.000000 12.958067
1168.000000 10.546789
1169.000000 8.153912
1170.000000 8.171268
1171.000000 8.267141
1172.000000 8.214945
1173.000000 3.533928
1174.000000 10.562157
1175.000000 7.042717
1176.000000 9.428089
1177.000000 7.044669
1178.000000 8.173753
1179.000000 3.516985
1180.000000 15.260648
1181.000000 4.688398
1182.000000 1.162728
1183.000000 10.520762
1184.000000 11.662001
1185.000000 15.211053
1186.000000 3.532177
1187.000000 12.937359
1188.000000 12.973155
1189.000000 14.018563
1190.000000 8.251105
1191.000000 4.656057
1192.000000 16.336720
1193.000000 8.226999
1194.000000 4.684221
1195.000000 9.322638
1196.000000 14.147781
1197.000000 10.537880
1198.000000 8.212582
1199.000000 10.570997
1200.000000 12.956986
1201.000000 2.360163
1202.000000 10.525798
1203.000000 5.809532
1204.000000 16.373779
1205.000000 13.937745
1206.000000 5.837835
1207.000000 9.316018
1208.000000 6.979134
1209.000000 12.973133
1210.000000 10.653387
1211.000000 8.172826
1212.000000 10.476429
1213.000000 9.373366
1214.000000 7.013532
1215.000000 10.496461
1216.000000 4.684686
1217.000000 7.013715
1218.000000 8.142648
1219.000000 4.625281
1220.000000 7.020993
1221.000000 10.454301
1222.000000 8.216579
1223.000000 10.556819
1224.000000 11.785453
1225.000000 7.098508
1226.000000 3.503787
1227.000000 3.530698
1228.000000 5.818195
1229.000000 7.005225
1230.000000 5.826649
1231.000000 7.008872
1232.000000 5.868900
1233.000000 11.602501
1234.000000 9.422844
1235.000000 3.489813
1236.000000 12.834096
1237.000000 12.913114
1238.000000 5.834295
1239.000000 10.544727
1240.000000 4.648341
1241.000000 4.706921
1242.000000 3.504502
1243.000000 7.008958
1244.000000 8.162331
1245.000000 1.171783
1246.000000 3.529845
1247.000000 4.619427
1248.000000 5.793689
1249.000000 8.165520
1250.000000 5.818339
1251.000000 4.640310
1252.000000 14.043154
1253.000000 11.649378
1254.000000 16.274961
1255.000000 12.743625
1256.000000 10.465012
1257.000000 8.149835
1258.000000 6.960515
1259.000000 6.958614
1260.000000 4.685698
1261.000000 2.323584
1262.000000 10.537894
1263.000000 10.465420
1264.000000 5.826986
1265.000000 9.329382
1266.000000 6.962221
1267.000000 9.303217
1268.000000 6.957533
1269.000000 12.773861
1270.000000 8.214210
1271.000000 7.005001
1272.000000 8.148574
1273.000000 4.660749
1274.000000 8.186914
1275.000000 4.667408
1276.000000 6.997921
1277.000000 3.489626
1278.000000 7.021864
1279.000000 7.021878
1280.000000 4.673300
1281.000000 4.648701
1282.000000 1.153478
1283.000000 8.225624
1284.000000 7.030502
1285.000000 11.631497
1286.000000 6.969850
1287.000000 8.134706
1288.000000 6.967476
1289.000000 8.147576
1290.000000 5.821814
1291.000000 6.984625
1292.000000 6.983428
1293.000000 0.000000
1294.000000 5.832548
1295.000000 8.173905
1296.000000 5.796899
1297.000000 3.486071
1298.000000 5.825720
1299.000000 6.979314
