# Left column = Time after Trigger in seconds & Right column = # Counts / Exposure = Flux per cm² s
700.000000 9.323249
701.000000 12.898716
702.000000 17.532608
703.000000 20.993515
704.000000 12.815944
705.000000 10.473325
706.000000 15.193651
707.000000 10.544564
708.000000 16.420932
709.000000 10.498949
710.000000 9.239869
711.000000 9.337339
712.000000 23.320494
713.000000 16.489073
714.000000 12.792700
715.000000 26.936859
716.000000 19.868054
717.000000 15.054013
718.000000 11.620205
719.000000 24.681992
720.000000 14.000870
721.000000 24.392198
722.000000 18.695951
723.000000 10.489076
724.000000 16.391342
725.000000 15.118425
726.000000 15.083598
727.000000 21.054836
728.000000 15.118238
729.000000 13.919533
730.000000 15.150153
731.000000 9.315732
732.000000 18.721418
733.000000 12.868304
734.000000 16.274486
735.000000 8.182864
736.000000 19.832497
737.000000 18.713612
738.000000 12.803413
739.000000 6.959970
740.000000 15.178540
741.000000 10.496718
742.000000 19.701277
743.000000 15.163262
744.000000 19.863722
745.000000 16.515863
746.000000 13.981837
747.000000 11.627466
748.000000 14.060588
749.000000 22.171559
750.000000 15.270645
751.000000 10.463486
752.000000 12.717933
753.000000 16.365284
754.000000 16.342038
755.000000 13.996998
756.000000 22.194538
757.000000 10.433710
758.000000 23.526006
759.000000 11.638505
760.000000 8.120543
761.000000 18.535092
762.000000 26.873590
763.000000 16.151709
764.000000 13.957172
765.000000 12.713549
766.000000 9.220350
767.000000 12.723180
768.000000 24.456274
769.000000 23.140874
770.000000 12.881755
771.000000 16.335367
772.000000 8.181733
773.000000 19.831500
774.000000 18.629113
775.000000 10.534289
776.000000 13.914415
777.000000 18.671380
778.000000 17.294455
779.000000 17.426402
780.000000 18.479213
781.000000 16.160693
782.000000 18.426246
783.000000 15.112846
784.000000 23.256808
785.000000 19.882529
786.000000 16.230364
787.000000 15.098576
788.000000 19.818968
789.000000 16.257663
790.000000 9.311669
791.000000 12.766698
792.000000 11.653989
793.000000 24.280123
794.000000 18.723636
795.000000 23.188821
796.000000 12.874231
797.000000 14.926448
798.000000 19.699522
799.000000 17.517728
800.000000 12.749099
801.000000 14.039850
802.000000 18.701702
803.000000 23.189837
804.000000 12.687000
805.000000 12.800967
806.000000 16.254723
807.000000 11.534988
808.000000 15.158224
809.000000 12.761490
810.000000 20.844156
811.000000 12.703250
812.000000 13.952123
813.000000 17.365953
814.000000 12.731399
815.000000 12.784074
816.000000 19.696151
817.000000 15.058755
818.000000 11.612401
819.000000 15.165128
820.000000 9.247314
821.000000 9.286784
822.000000 22.086604
823.000000 5.744283
824.000000 12.731660
825.000000 10.413537
826.000000 13.954535
827.000000 11.546064
828.000000 13.936666
829.000000 12.790762
830.000000 8.046817
831.000000 18.466128
832.000000 24.337459
833.000000 8.031495
834.000000 15.003318
835.000000 10.412827
836.000000 10.415244
837.000000 13.916830
838.000000 24.257425
839.000000 13.780400
840.000000 11.503912
841.000000 17.248613
842.000000 13.904103
843.000000 14.891329
844.000000 13.774068
845.000000 14.981515
846.000000 16.074004
847.000000 11.472785
848.000000 18.440515
849.000000 17.337426
850.000000 8.030570
851.000000 12.640393
852.000000 15.107189
853.000000 13.901973
854.000000 8.017568
855.000000 6.904140
856.000000 22.990449
857.000000 12.708218
858.000000 17.401521
859.000000 16.138600
860.000000 10.429051
861.000000 13.793514
862.000000 12.696935
863.000000 10.321207
864.000000 19.563765
865.000000 16.285422
866.000000 13.711977
867.000000 13.759994
868.000000 14.969762
869.000000 19.717549
870.000000 13.825999
871.000000 9.136577
872.000000 14.992379
873.000000 11.459968
874.000000 8.047222
875.000000 13.755812
876.000000 13.859747
877.000000 18.615514
878.000000 19.594277
879.000000 17.197311
880.000000 10.400609
881.000000 19.661041
882.000000 12.647359
883.000000 9.200531
884.000000 16.053338
885.000000 12.717119
886.000000 12.540142
887.000000 12.693491
888.000000 15.054376
889.000000 16.026384
890.000000 16.061893
891.000000 10.291661
892.000000 14.964460
893.000000 14.951169
894.000000 10.315676
895.000000 11.591180
896.000000 13.844049
897.000000 13.803631
898.000000 10.393257
899.000000 10.306306
900.000000 18.454862
901.000000 16.120125
902.000000 14.877047
903.000000 19.544468
904.000000 18.228451
905.000000 14.974978
906.000000 16.015106
907.000000 9.209213
908.000000 21.776025
909.000000 19.512184
910.000000 17.075708
911.000000 13.570459
912.000000 6.849820
913.000000 18.243879
914.000000 13.665067
915.000000 14.920693
916.000000 21.940037
917.000000 16.104253
918.000000 12.532857
919.000000 16.021849
920.000000 13.690822
921.000000 11.492885
922.000000 11.493709
923.000000 14.761093
924.000000 11.492453
925.000000 11.430637
926.000000 13.618567
927.000000 9.137168
928.000000 26.367965
929.000000 18.222957
930.000000 12.491290
931.000000 24.152400
932.000000 14.860721
933.000000 22.863751
934.000000 13.809963
935.000000 10.207584
936.000000 13.599146
937.000000 16.012400
938.000000 14.828903
939.000000 11.510991
940.000000 19.272130
941.000000 14.774266
942.000000 9.112214
943.000000 14.762793
944.000000 16.045292
945.000000 16.974017
946.000000 11.352081
947.000000 14.835221
948.000000 21.484596
949.000000 26.189717
950.000000 14.784400
951.000000 19.249994
952.000000 22.882655
953.000000 17.101040
954.000000 9.098745
955.000000 27.348128
956.000000 20.417004
957.000000 14.735034
958.000000 17.032718
959.000000 15.904522
960.000000 14.755017
961.000000 10.218956
962.000000 28.349393
963.000000 13.638150
964.000000 11.478211
965.000000 16.936739
966.000000 12.440466
967.000000 15.945573
968.000000 11.291231
969.000000 14.712595
970.000000 25.945101
971.000000 10.201505
972.000000 10.205206
973.000000 19.220006
974.000000 10.198884
975.000000 13.621415
976.000000 15.782212
977.000000 9.076795
978.000000 13.499047
979.000000 12.478277
980.000000 9.016377
981.000000 7.897077
982.000000 4.515852
983.000000 18.083570
984.000000 19.231766
985.000000 11.264568
986.000000 15.854595
987.000000 18.110230
988.000000 22.548827
989.000000 12.433618
990.000000 19.213874
991.000000 22.509290
992.000000 15.821793
993.000000 26.191314
994.000000 30.256207
995.000000 12.437210
996.000000 14.689682
997.000000 13.642806
998.000000 11.292949
999.000000 11.216981
1000.000000 14.697368
1001.000000 16.930208
1002.000000 20.253319
1003.000000 19.356789
1004.000000 20.497447
1005.000000 22.415919
1006.000000 23.613454
1007.000000 29.229034
1008.000000 43.102378
1009.000000 77.399412
1010.000000 84.593467
1011.000000 60.481111
1012.000000 76.800241
1013.000000 74.543709
1014.000000 61.252913
1015.000000 61.085590
1016.000000 50.850739
1017.000000 59.733451
1018.000000 39.331728
1019.000000 50.838505
1020.000000 47.512571
1021.000000 41.042190
1022.000000 37.158101
1023.000000 30.311166
1024.000000 35.875467
1025.000000 29.394866
1026.000000 21.391966
1027.000000 32.609949
1028.000000 24.611265
1029.000000 13.477759
1030.000000 41.570696
1031.000000 20.198038
1032.000000 27.972960
1033.000000 14.590203
1034.000000 15.596183
1035.000000 14.636372
1036.000000 17.974921
1037.000000 29.351982
1038.000000 17.868092
1039.000000 19.129048
1040.000000 17.969962
1041.000000 16.811527
1042.000000 22.568741
1043.000000 23.474467
1044.000000 22.378776
1045.000000 13.517104
1046.000000 17.841635
1047.000000 19.209075
1048.000000 16.809259
1049.000000 15.677275
1050.000000 11.194711
1051.000000 19.040767
1052.000000 8.912049
1053.000000 21.389760
1054.000000 11.209831
1055.000000 14.514092
1056.000000 14.628154
1057.000000 15.670157
1058.000000 13.479792
1059.000000 17.912160
1060.000000 8.939241
1061.000000 20.207950
1062.000000 17.794146
1063.000000 16.782610
1064.000000 18.955741
1065.000000 20.037308
1066.000000 14.502162
1067.000000 10.040616
1068.000000 17.864688
1069.000000 15.635359
1070.000000 18.836439
1071.000000 13.495586
1072.000000 13.409670
1073.000000 17.790139
1074.000000 15.544240
1075.000000 11.166888
1076.000000 14.399151
1077.000000 12.229971
1078.000000 16.637003
1079.000000 12.164802
1080.000000 12.275522
1081.000000 13.303106
1082.000000 15.486168
1083.000000 7.759115
1084.000000 11.151965
1085.000000 4.436236
1086.000000 16.612727
1087.000000 13.335148
1088.000000 12.266751
1089.000000 14.497843
1090.000000 23.372378
1091.000000 21.070233
1092.000000 14.387853
1093.000000 14.399946
1094.000000 17.670330
1095.000000 21.088877
1096.000000 11.079668
1097.000000 12.170361
1098.000000 7.830581
1099.000000 9.959729
1100.000000 15.381735
1101.000000 16.594946
1102.000000 15.474756
1103.000000 8.853372
1104.000000 13.340604
1105.000000 11.040368
1106.000000 21.199753
1107.000000 12.174885
1108.000000 16.646436
1109.000000 19.860660
1110.000000 16.503926
1111.000000 9.922015
1112.000000 12.148495
1113.000000 12.146230
1114.000000 5.569592
1115.000000 12.156599
1116.000000 11.014088
1117.000000 17.822352
1118.000000 12.139673
1119.000000 5.536967
1120.000000 11.007731
1121.000000 13.286395
1122.000000 13.242586
1123.000000 9.919185
1124.000000 12.177632
1125.000000 11.025711
1126.000000 16.519898
1127.000000 8.899033
1128.000000 9.889740
1129.000000 18.790924
1130.000000 12.216439
1131.000000 13.243164
1132.000000 19.822909
1133.000000 16.600441
1134.000000 22.060889
1135.000000 29.762658
1136.000000 17.660145
1137.000000 13.273001
1138.000000 13.235865
1139.000000 16.597180
1140.000000 15.468898
1141.000000 14.314183
1142.000000 9.899076
1143.000000 6.603167
1144.000000 7.742777
1145.000000 11.015156
1146.000000 12.071763
1147.000000 8.863673
1148.000000 11.067785
1149.000000 15.444274
1150.000000 15.517092
1151.000000 13.298720
1152.000000 16.574943
1153.000000 16.603860
1154.000000 6.589142
1155.000000 15.444376
1156.000000 9.911232
1157.000000 15.459193
1158.000000 11.022144
1159.000000 15.464503
1160.000000 14.294861
1161.000000 17.614755
1162.000000 12.095139
1163.000000 17.599892
1164.000000 10.998960
1165.000000 14.313762
1166.000000 4.362681
1167.000000 11.033335
1168.000000 13.181828
1169.000000 5.503676
1170.000000 15.435049
1171.000000 22.003801
1172.000000 9.890980
1173.000000 14.381211
1174.000000 15.457202
1175.000000 13.155799
1176.000000 15.328438
1177.000000 12.069507
1178.000000 24.231272
1179.000000 12.069380
1180.000000 12.063533
1181.000000 5.489637
1182.000000 13.262205
1183.000000 13.086654
1184.000000 21.067432
1185.000000 13.113437
1186.000000 8.761398
1187.000000 7.669325
1188.000000 11.008515
1189.000000 14.324502
1190.000000 13.240562
1191.000000 13.106742
1192.000000 8.796866
1193.000000 10.939343
1194.000000 12.104736
1195.000000 26.263985
1196.000000 16.381963
1197.000000 14.237302
1198.000000 14.198023
1199.000000 9.806693
1200.000000 9.920590
1201.000000 13.035381
1202.000000 16.522602
1203.000000 5.503416
1204.000000 17.550917
1205.000000 14.187211
1206.000000 12.139145
1207.000000 16.498230
1208.000000 9.864950
1209.000000 10.980241
1210.000000 18.610695
1211.000000 15.312624
1212.000000 14.241096
1213.000000 14.256002
1214.000000 10.966931
1215.000000 19.645818
1216.000000 8.703923
1217.000000 7.631519
1218.000000 17.406769
1219.000000 10.938524
1220.000000 6.611697
1221.000000 16.355586
1222.000000 15.409143
1223.000000 17.550783
1224.000000 10.944238
1225.000000 9.758265
1226.000000 23.988627
1227.000000 10.943427
1228.000000 18.710396
1229.000000 11.992515
1230.000000 10.934078
1231.000000 9.843699
1232.000000 13.104194
1233.000000 14.162960
1234.000000 10.909157
1235.000000 10.899409
1236.000000 13.162320
1237.000000 13.130877
1238.000000 11.945695
1239.000000 10.871119
1240.000000 12.008631
1241.000000 14.108804
1242.000000 14.175517
1243.000000 9.845120
1244.000000 9.815447
1245.000000 7.611192
1246.000000 8.727364
1247.000000 5.464514
1248.000000 10.956553
1249.000000 7.652943
1250.000000 14.334318
1251.000000 11.959959
1252.000000 12.026566
1253.000000 8.724608
1254.000000 16.360692
1255.000000 10.937622
1256.000000 8.712384
1257.000000 7.607854
1258.000000 13.164151
1259.000000 17.431849
1260.000000 9.840805
1261.000000 10.896028
1262.000000 12.005666
1263.000000 12.020660
1264.000000 9.783488
1265.000000 7.686280
1266.000000 10.938341
1267.000000 12.075983
1268.000000 7.619043
1269.000000 12.045342
1270.000000 7.670595
1271.000000 9.837492
1272.000000 8.707919
1273.000000 10.956710
1274.000000 8.761231
1275.000000 15.282458
1276.000000 10.898369
1277.000000 9.797691
1278.000000 15.212164
1279.000000 10.890061
1280.000000 9.747659
1281.000000 9.839664
1282.000000 9.833105
1283.000000 13.043157
1284.000000 10.843175
1285.000000 10.869608
1286.000000 11.919136
1287.000000 15.179948
1288.000000 8.679684
1289.000000 4.352162
1290.000000 10.841127
1291.000000 7.647329
1292.000000 11.988412
1293.000000 6.505289
1294.000000 7.643047
1295.000000 15.263939
1296.000000 5.450962
1297.000000 14.031517
1298.000000 11.923681
1299.000000 8.685451
