# Left column = Time after Trigger in seconds & Right column = # Counts / Exposure = Flux per cm² s
700.000000 5.440183
701.000000 1.086712
702.000000 2.179776
703.000000 2.160416
704.000000 4.326891
705.000000 4.326255
706.000000 7.567075
707.000000 5.457015
708.000000 4.352129
709.000000 3.276617
710.000000 6.574846
711.000000 8.681936
712.000000 3.244271
713.000000 4.331113
714.000000 4.306448
715.000000 6.549115
716.000000 3.257374
717.000000 5.480770
718.000000 6.513977
719.000000 5.438183
720.000000 3.254036
721.000000 7.565820
722.000000 6.506772
723.000000 7.563435
724.000000 1.081172
725.000000 2.169008
726.000000 3.265169
727.000000 4.375190
728.000000 3.263090
729.000000 4.324786
730.000000 3.257783
731.000000 1.092226
732.000000 4.320775
733.000000 4.338255
734.000000 4.345094
735.000000 3.266090
736.000000 3.283828
737.000000 4.317868
738.000000 2.171242
739.000000 8.640264
740.000000 6.486213
741.000000 2.174715
742.000000 4.345005
743.000000 2.175988
744.000000 7.622682
745.000000 1.085222
746.000000 5.423970
747.000000 1.082707
748.000000 6.496039
749.000000 7.602415
750.000000 4.326114
751.000000 5.388072
752.000000 5.399362
753.000000 7.572895
754.000000 3.247088
755.000000 7.584517
756.000000 3.257160
757.000000 7.629761
758.000000 3.253857
759.000000 3.256693
760.000000 4.351057
761.000000 4.355296
762.000000 5.387089
763.000000 4.343479
764.000000 1.076864
765.000000 3.241051
766.000000 5.443985
767.000000 5.431293
768.000000 3.271108
769.000000 6.530564
770.000000 3.248824
771.000000 1.092778
772.000000 5.433722
773.000000 2.174793
774.000000 1.076991
775.000000 3.258702
776.000000 5.400701
777.000000 8.745079
778.000000 4.375501
779.000000 3.252349
780.000000 3.261128
781.000000 2.159385
782.000000 4.333625
783.000000 3.248907
784.000000 5.387557
785.000000 5.420961
786.000000 3.263370
787.000000 5.439368
788.000000 6.464143
789.000000 8.659749
790.000000 4.329106
791.000000 7.552153
792.000000 6.496406
793.000000 6.492759
794.000000 3.264047
795.000000 1.084955
796.000000 4.340357
797.000000 2.162561
798.000000 6.483812
799.000000 7.588544
800.000000 2.173197
801.000000 7.567181
802.000000 4.336487
803.000000 7.561803
804.000000 8.699051
805.000000 7.603269
806.000000 2.183215
807.000000 0.000000
808.000000 5.414722
809.000000 7.603210
810.000000 2.169184
811.000000 4.324339
812.000000 6.510147
813.000000 5.420265
814.000000 4.358934
815.000000 6.483876
816.000000 3.226473
817.000000 5.417462
818.000000 4.313617
819.000000 4.324124
820.000000 1.083066
821.000000 3.232787
822.000000 5.415229
823.000000 10.782464
824.000000 5.426913
825.000000 6.516801
826.000000 5.424971
827.000000 6.527774
828.000000 9.699389
829.000000 3.235238
830.000000 3.254417
831.000000 2.163114
832.000000 2.172678
833.000000 3.264482
834.000000 5.450838
835.000000 5.449727
836.000000 3.258984
837.000000 5.395987
838.000000 3.254513
839.000000 5.378265
840.000000 6.473461
841.000000 2.157555
842.000000 2.171911
843.000000 4.338058
844.000000 5.422747
845.000000 10.809454
846.000000 3.247271
847.000000 4.344556
848.000000 6.508543
849.000000 5.413395
850.000000 6.478814
851.000000 4.367920
852.000000 8.627921
853.000000 6.531495
854.000000 8.655633
855.000000 3.243702
856.000000 1.089975
857.000000 4.310727
858.000000 4.357837
859.000000 3.245566
860.000000 5.394524
861.000000 5.347976
862.000000 1.085797
863.000000 3.263306
864.000000 5.405867
865.000000 4.311280
866.000000 5.441851
867.000000 3.224401
868.000000 4.313528
869.000000 7.572197
870.000000 4.337874
871.000000 1.076052
872.000000 8.664345
873.000000 4.337535
874.000000 7.556246
875.000000 5.446838
876.000000 6.396328
877.000000 12.987690
878.000000 3.239826
879.000000 5.421085
880.000000 3.244170
881.000000 3.238194
882.000000 2.173173
883.000000 5.440440
884.000000 5.439063
885.000000 2.153460
886.000000 6.464514
887.000000 8.644825
888.000000 1.081116
889.000000 0.000000
890.000000 3.240370
891.000000 4.341628
892.000000 4.347321
893.000000 1.078474
894.000000 5.429427
895.000000 7.612863
896.000000 5.368289
897.000000 4.330266
898.000000 6.555103
899.000000 7.575848
900.000000 3.243178
901.000000 2.180863
902.000000 4.321826
903.000000 3.239280
904.000000 6.452073
905.000000 4.318494
906.000000 2.169139
907.000000 5.387337
908.000000 3.237545
909.000000 3.230071
910.000000 8.669807
911.000000 3.224484
912.000000 5.406810
913.000000 7.550462
914.000000 5.403899
915.000000 1.075258
916.000000 4.349644
917.000000 3.226715
918.000000 5.405598
919.000000 4.350422
920.000000 6.481604
921.000000 3.220153
922.000000 4.319877
923.000000 5.422372
924.000000 6.461167
925.000000 2.164724
926.000000 3.255176
927.000000 2.165146
928.000000 2.153834
929.000000 5.379182
930.000000 5.390840
931.000000 3.230736
932.000000 4.334859
933.000000 5.389292
934.000000 6.489054
935.000000 3.231871
936.000000 4.327410
937.000000 6.494803
938.000000 9.672498
939.000000 1.081183
940.000000 5.415682
941.000000 6.468558
942.000000 1.082080
943.000000 14.047242
944.000000 5.393969
945.000000 7.571597
946.000000 3.253366
947.000000 4.314329
948.000000 3.232759
949.000000 4.333019
950.000000 3.231123
951.000000 2.149528
952.000000 9.758285
953.000000 7.595536
954.000000 4.324223
955.000000 2.162388
956.000000 5.414227
957.000000 3.249730
958.000000 4.335008
959.000000 3.243544
960.000000 8.654987
961.000000 7.542234
962.000000 1.084116
963.000000 5.395286
964.000000 1.087108
965.000000 5.404003
966.000000 2.157718
967.000000 3.229896
968.000000 3.240361
969.000000 3.227099
970.000000 3.256646
971.000000 7.573997
972.000000 4.312007
973.000000 8.624474
974.000000 7.525104
975.000000 7.552973
976.000000 6.504800
977.000000 9.708586
978.000000 2.157021
979.000000 5.385275
980.000000 4.296390
981.000000 5.387846
982.000000 2.166253
983.000000 3.234686
984.000000 3.232247
985.000000 7.576663
986.000000 2.151217
987.000000 8.614272
988.000000 5.375284
989.000000 4.338462
990.000000 4.305349
991.000000 6.469240
992.000000 1.073619
993.000000 2.176907
994.000000 6.500177
995.000000 2.155076
996.000000 5.411071
997.000000 5.376224
998.000000 5.396433
999.000000 5.398284
1000.000000 9.652097
1001.000000 16.254248
1002.000000 16.233488
1003.000000 31.942063
1004.000000 161.672636
1005.000000 252.684892
1006.000000 149.959464
1007.000000 69.642240
1008.000000 57.414438
1009.000000 47.720184
1010.000000 37.876471
1011.000000 38.780419
1012.000000 37.952135
1013.000000 32.482704
1014.000000 32.422694
1015.000000 34.760950
1016.000000 38.853316
1017.000000 42.135073
1018.000000 24.782995
1019.000000 22.848467
1020.000000 21.540947
1021.000000 20.559433
1022.000000 74.454521
1023.000000 26.087012
1024.000000 25.064527
1025.000000 27.988934
1026.000000 20.555962
1027.000000 18.265067
1028.000000 10.757389
1029.000000 27.928169
1030.000000 22.641416
1031.000000 7.564761
1032.000000 14.062733
1033.000000 16.142880
1034.000000 14.056489
1035.000000 23.804847
1036.000000 29.199669
1037.000000 18.363765
1038.000000 10.793956
1039.000000 11.915913
1040.000000 9.724606
1041.000000 27.122797
1042.000000 28.170323
1043.000000 28.016332
1044.000000 9.770758
1045.000000 25.909661
1046.000000 16.297904
1047.000000 7.540622
1048.000000 7.542375
1049.000000 8.700500
1050.000000 7.527302
1051.000000 7.516588
1052.000000 9.737651
1053.000000 18.324520
1054.000000 11.896670
1055.000000 9.708260
1056.000000 9.769713
1057.000000 6.439104
1058.000000 15.118734
1059.000000 10.754896
1060.000000 8.627624
1061.000000 9.666394
1062.000000 8.621496
1063.000000 4.343978
1064.000000 8.632799
1065.000000 12.924722
1066.000000 9.693423
1067.000000 10.876258
1068.000000 8.617076
1069.000000 8.598457
1070.000000 10.818832
1071.000000 6.496153
1072.000000 10.779240
1073.000000 6.480258
1074.000000 11.832191
1075.000000 8.615249
1076.000000 7.571823
1077.000000 10.760554
1078.000000 10.802543
1079.000000 8.579206
1080.000000 8.594003
1081.000000 4.297770
1082.000000 13.974404
1083.000000 5.383177
1084.000000 7.508007
1085.000000 5.399091
1086.000000 7.594658
1087.000000 9.754184
1088.000000 10.750401
1089.000000 8.582340
1090.000000 7.559731
1091.000000 8.664054
1092.000000 9.765514
1093.000000 6.485830
1094.000000 3.221628
1095.000000 5.360912
1096.000000 6.500350
1097.000000 8.645045
1098.000000 6.523291
1099.000000 8.626406
1100.000000 8.613293
1101.000000 8.607912
1102.000000 6.520565
1103.000000 6.447004
1104.000000 7.576606
1105.000000 8.636351
1106.000000 5.380996
1107.000000 9.732228
1108.000000 4.322697
1109.000000 6.442395
1110.000000 7.564934
1111.000000 8.647739
1112.000000 5.400025
1113.000000 8.616791
1114.000000 4.337173
1115.000000 3.246907
1116.000000 10.791105
1117.000000 8.672059
1118.000000 12.915621
1119.000000 10.783677
1120.000000 5.413049
1121.000000 9.748458
1122.000000 8.553456
1123.000000 9.760128
1124.000000 9.758776
1125.000000 3.221708
1126.000000 4.302925
1127.000000 4.315200
1128.000000 7.578550
1129.000000 7.621433
1130.000000 8.613190
1131.000000 7.534184
1132.000000 4.320768
1133.000000 5.391435
1134.000000 11.869195
1135.000000 5.395110
1136.000000 4.312240
1137.000000 7.562868
1138.000000 3.243883
1139.000000 8.629495
1140.000000 11.828693
1141.000000 8.645593
1142.000000 3.247970
1143.000000 11.852435
1144.000000 5.398694
1145.000000 5.379245
1146.000000 3.237931
1147.000000 2.164145
1148.000000 6.443545
1149.000000 3.209075
1150.000000 9.724284
1151.000000 5.391243
1152.000000 9.670514
1153.000000 6.426219
1154.000000 5.410373
1155.000000 8.624439
1156.000000 6.476833
1157.000000 3.233341
1158.000000 3.234550
1159.000000 4.325129
1160.000000 6.459308
1161.000000 5.396754
1162.000000 5.375828
1163.000000 9.711557
1164.000000 10.793005
1165.000000 7.551786
1166.000000 5.400410
1167.000000 5.397470
1168.000000 4.318345
1169.000000 3.240997
1170.000000 7.564480
1171.000000 3.262112
1172.000000 7.540728
1173.000000 3.244720
1174.000000 6.462591
1175.000000 4.299367
1176.000000 9.783625
1177.000000 4.313428
1178.000000 2.161118
1179.000000 4.333929
1180.000000 3.222748
1181.000000 8.601434
1182.000000 6.456443
1183.000000 7.503331
1184.000000 6.496893
1185.000000 6.462109
1186.000000 4.327959
1187.000000 9.724804
1188.000000 4.314073
1189.000000 5.408295
1190.000000 4.317993
1191.000000 6.479805
1192.000000 5.401325
1193.000000 13.019911
1194.000000 4.312475
1195.000000 6.482460
1196.000000 8.657536
1197.000000 8.645323
1198.000000 7.557974
1199.000000 8.635022
1200.000000 3.214756
1201.000000 5.385843
1202.000000 7.522347
1203.000000 7.527331
1204.000000 7.550199
1205.000000 3.233898
1206.000000 4.302985
1207.000000 7.569855
1208.000000 8.635479
1209.000000 5.389611
1210.000000 6.430109
1211.000000 7.610352
1212.000000 6.478455
1213.000000 6.474402
1214.000000 5.408278
1215.000000 10.824045
1216.000000 4.297725
1217.000000 11.811236
1218.000000 9.650023
1219.000000 6.509971
1220.000000 4.330518
1221.000000 5.403791
1222.000000 5.371913
1223.000000 4.309394
1224.000000 7.524055
1225.000000 6.486281
1226.000000 3.241434
1227.000000 4.310979
1228.000000 4.302728
1229.000000 6.464223
1230.000000 8.593159
1231.000000 6.468942
1232.000000 4.313069
1233.000000 8.601926
1234.000000 5.356906
1235.000000 2.134751
1236.000000 3.237225
1237.000000 6.463389
1238.000000 7.576618
1239.000000 6.496214
1240.000000 8.671834
1241.000000 9.689484
1242.000000 14.046065
1243.000000 7.562261
1244.000000 5.404459
1245.000000 4.303504
1246.000000 6.468042
1247.000000 3.211406
1248.000000 5.380581
1249.000000 3.220716
1250.000000 1.083690
1251.000000 5.371899
1252.000000 9.703392
1253.000000 7.574304
1254.000000 5.370937
1255.000000 9.729211
1256.000000 9.749974
1257.000000 7.521841
1258.000000 6.490057
1259.000000 3.242901
1260.000000 4.315385
1261.000000 6.519351
1262.000000 5.358798
1263.000000 10.825479
1264.000000 8.592342
1265.000000 7.562626
1266.000000 3.252950
1267.000000 2.151363
1268.000000 5.380444
1269.000000 7.555427
1270.000000 6.458352
1271.000000 5.431633
1272.000000 2.157253
1273.000000 4.302947
1274.000000 8.659502
1275.000000 11.893276
1276.000000 6.503252
1277.000000 8.633297
1278.000000 4.311470
1279.000000 6.499112
1280.000000 6.509715
1281.000000 3.236492
1282.000000 7.555715
1283.000000 7.532008
1284.000000 4.304979
1285.000000 3.242824
1286.000000 6.540399
1287.000000 7.585620
1288.000000 4.342126
1289.000000 5.417282
1290.000000 5.407737
1291.000000 6.467058
1292.000000 6.487802
1293.000000 6.440788
1294.000000 2.176451
1295.000000 3.242813
1296.000000 7.605913
1297.000000 7.499462
1298.000000 6.481263
1299.000000 4.357298
